Time,Accel_X,Accel_Y,Accel_Z,Gyro_X,Gyro_Y,Gyro_Z
0.0,0.1497545068356156,0.16467598906144892,-9.651284604379853,0.04694733617255961,0.24675386990191261,0.18491149093467052
0.01,0.21681637533240786,0.17239080929128353,-9.574111259209063,0.00786174644371318,0.07254760214942287,0.07934885885400295
0.02,0.27166037235145046,0.14036392225159394,-9.643482643180201,0.06356072692358924,0.22794791601246575,-0.060268973287901484
0.03,0.3163571083270267,0.11129276693407673,-9.615376915517295,0.1714744284046592,0.10566616610585393,0.12840398508222747
0.04,0.19911244111845885,0.13300186414604187,-9.627455909781471,0.08203781531528591,0.04288612337483033,0.07967847610855502
0.05,0.03472896881720561,0.15661010933107952,-9.58012283330103,0.2962247991524344,0.2705247286468794,-0.004110398017342726
0.06,0.16598469822925985,0.08039879485096633,-9.633112751231662,0.1310642018702442,0.20387317211522152,-0.03597172387079503
0.07,0.25172614849990604,0.14338613253852825,-9.643438133661657,0.038155802852059606,-0.07710100514200507,0.17327384372625806
0.08,0.1676388248334849,0.06918975746960415,-9.593136268200453,0.25178108834141877,-0.01753248650438563,0.18305673041630963
0.09,0.18533142753264953,0.04524838835276751,-9.583286998668576,0.07544931025488089,-0.02420877345713246,0.07200383202884628
0.1,0.25904656430424783,0.04312541287580646,-9.701824575659241,-0.0012183550222681916,0.08323851485070109,0.16684951216168473
0.11,0.1879526428472796,0.008330102007613471,-9.574527513585666,0.10053296570030283,-0.05128237283650228,0.12036744640851181
0.12,0.2014858361379718,0.04426957010451671,-9.632795229213166,0.03937108453965599,0.11117351942952886,0.012299524705138926
0.13,0.23959331785895804,0.013117268526132597,-9.602606222098006,0.24284875106090084,0.08692886186067436,-0.25110380583192515
0.14,0.14761389249471527,-0.0644459233617819,-9.689006550526573,0.13100291719256474,0.12877598524601888,-0.077017309137037
0.15,0.16085521194584274,-0.05547499264533312,-9.623696510573252,0.20092499587560794,0.0370104651304652,0.07854655660019193
0.16,0.24211559046429662,-0.17854128264316682,-9.659469567077794,-0.08193747274880292,-0.024735052055988513,0.09630972106284325
0.17,0.20148828148823825,-0.04940902956001425,-9.601911032127578,-0.11454254717316534,-0.047565189574411415,-0.016061342023300257
0.18,0.1542733168967385,-0.1296120108554456,-9.583948928692859,0.12337439976203969,-0.050580358312836915,-0.04440448365792923
0.19,0.22947131331950557,-0.14727330197381927,-9.649753856807479,0.19903772379530235,0.14748243421484508,0.06901370800382979
0.2,0.2448039317676375,-0.21173773732423462,-9.568051194281669,0.11954272214189443,-0.0035806687362984063,-0.08842721320974503
0.21,0.2118404002293967,-0.2895805471421662,-9.633301918062388,0.27074022573749934,0.2940220932177259,-0.026235279836167774
0.22,0.22135469653881865,-0.28899250601479587,-9.601700672449267,-0.07521244723539611,0.11208550214219905,0.14530374110886005
0.23,0.21509195579074256,-0.21003091613828606,-9.588028410055488,0.12370144354844877,0.06671695842087572,0.004391283846277613
0.24,0.2774489177023601,-0.2720382375251896,-9.66777540097689,0.030928594174920054,0.14315072630817471,0.07372459835294999
0.25,0.2338998726962238,-0.3258484469213467,-9.562899510750164,0.202668476317175,0.08131345712285357,0.0009630818465462959
0.26,0.17193781187410628,-0.3048048752710922,-9.602683206366063,0.10821066398306096,0.24099709546069248,0.014869097447514662
0.27,0.24215015284568997,-0.34270491498003947,-9.643230296354194,0.10455099777609463,0.008138488440432828,-0.04284816646128051
0.28,0.1582150281573675,-0.41811177988664466,-9.58684154245731,0.04611221614410618,-0.03463591546026107,0.0764589611538877
0.29,0.1782324879343818,-0.34117749844014483,-9.63164406785827,-0.051669225836558225,-0.02753440526444667,-0.08996150229781971
0.3,0.1711719377092444,-0.24407682016230403,-9.65371688654497,-0.020639645092010994,0.05177894999623,-0.039094560714736354
0.31,0.19567977555153973,-0.37598067013394315,-9.663425787374258,-0.03191708153346673,0.09706219490646345,-0.0952375784475962
0.32,0.18725829564141094,-0.418894418082472,-9.550148432882516,0.11625112880276668,0.07346093236233484,0.07100298044531415
0.33,0.18893435094137842,-0.37326351305290034,-9.562912643657226,0.11777375440016366,0.19903889684424186,-0.05322612223071996
0.34,0.1694308524309534,-0.4961584224064612,-9.648928308770378,0.19806010472253693,0.05526598906782113,-0.12814036572879176
0.35000000000000003,0.1898044211054878,-0.5049536600622186,-9.627148325168156,0.2524165884539504,-0.0051267311727569015,-0.0009727880026618729
0.36,0.14908391770459373,-0.5253368071653974,-9.662657725467785,0.14985088773726093,0.2106409186798795,-0.08100614488889776
0.37,0.19510782375695626,-0.4817401660966644,-9.563724429699143,0.13175176913880068,-0.005527532585279646,0.023604389957590913
0.38,0.20648487148659495,-0.5630988881480778,-9.647106376539872,0.21188198834521207,-0.16032606846257028,-0.13854973733358186
0.39,0.1288748672012156,-0.5616050880856229,-9.680324180480252,0.1475050132292469,0.1761540162950403,-0.12942913624612962
0.4,0.2242724312184453,-0.6712811860360399,-9.600181249949403,-0.048589764113616846,0.32595692583364233,-0.047800474357127615
0.41000000000000003,0.1693833493836327,-0.6208195497325506,-9.605123397615161,0.08967520481547521,-0.05010153186359853,0.1203959487969456
0.42,0.1767430177926264,-0.5552853352135751,-9.580851842560026,0.08846146947389974,-0.032170176462366,-0.13805152900521772
0.43,0.19098580088792547,-0.6214759960187577,-9.68680636410904,0.21513048944532503,0.05721823828844334,-0.03509603251163074
0.44,0.15516546088819627,-0.6860171169112648,-9.633765261341342,0.19613282118456687,0.021399323799833697,-0.33874660292878056
0.45,0.11900424375129204,-0.7102618759289441,-9.649520213699834,0.09142896645154325,0.2769558131702441,-0.11716466871500777
0.46,0.16322773023381879,-0.6994383748022401,-9.73614841858094,0.06785769121515017,0.1922591109255449,-0.25741988287213924
0.47000000000000003,0.29640967903306953,-0.7424348463857005,-9.597177898988242,-0.03536126080739185,-0.0074174345336392306,0.007532919208111805
0.48,0.21758212549299288,-0.6750071476542641,-9.582672682129383,0.05510420184032204,0.07081653055166509,-0.14567593933405557
0.49,0.3330698859842328,-0.8167974928552155,-9.633824552200085,0.0848702846373028,0.051801629468714076,-0.21816848180831486
0.5,0.19642807506270896,-0.7657198541370733,-9.62361328263051,0.08361594637714939,0.11362347789096922,-0.16038532104611034
0.51,0.2482450525402597,-0.7716260264093528,-9.599712208058698,0.043306298464536555,-0.02994712453110046,-0.2692650901054262
0.52,0.1700489146719401,-0.805805393628876,-9.569350270549746,0.2399335385000121,0.038581051477946264,0.021399762843667874
0.53,0.28833785453013255,-0.866550129152784,-9.615654823337515,0.14383051644134345,-0.05821887700730999,-0.0710694818370062
0.54,0.24270933413217277,-0.8538662689391803,-9.653767413676954,0.041955701356055974,0.01208231549901087,-0.23985663669635862
0.55,0.24385376825100155,-0.8776499934512765,-9.604385724075962,0.13986261695334945,0.1409259006163302,-0.3598650776937269
0.56,0.1471411969467421,-0.8892836846070518,-9.675931180343577,0.032662558995226895,-0.024585303145179857,-0.24703867861337056
0.5700000000000001,0.22269720789614023,-0.7839796397352132,-9.588991725007045,0.059104145942778005,-0.04953849191014828,-0.11500924123015555
0.58,0.14099649118980226,-0.9388761427656636,-9.620081278794915,-0.09840174657581097,0.09974825307411168,-0.17391167379297198
0.59,0.1951680159270901,-0.8565339053260717,-9.600077722756888,0.15340633985999763,-0.052067308190209965,-0.13397043881761628
0.6,0.15357573765184213,-0.9044026321317882,-9.537500723354004,0.08534731168338203,0.2818166606788268,-0.14982535796007818
0.61,0.13655490959977584,-0.9814896323124485,-9.561555257921718,0.2092651548862903,0.09236041620586731,-0.3133535589582107
0.62,0.2037075649272108,-0.9463042943666384,-9.690629650806923,0.19118973043450035,-0.017295654774010558,-0.19338955433942082
0.63,0.19141127816556397,-1.0162334311869592,-9.565325117896062,0.11492057419494511,0.17162827902157457,-0.22593842311770643
0.64,0.2098604672305412,-1.0304374170251898,-9.630973760154912,0.1806531664591873,0.04456541960215831,-0.086418051853584
0.65,0.25923689034232944,-0.9371660097426944,-9.625633303712423,0.09787040983084444,-0.09612975498196838,-0.1313755500152966
0.66,0.1958275340190978,-1.043593011848053,-9.615566448862413,0.13477094237821766,-0.0083778318172536,-0.31199517568520896
0.67,0.21132068066385232,-1.0888334681032614,-9.604716541782397,0.18412984014132466,-0.12390971586448557,-0.2946492631140527
0.68,0.18276882476074094,-1.0853203084475516,-9.61190660167941,-0.17334938987082973,0.03125823993931383,-0.3764391694865168
0.6900000000000001,0.2476117653827837,-1.0524930487850457,-9.63542097296381,0.19367784146147443,0.15938094427492694,-0.29280916327212736
0.7000000000000001,0.31271407281729247,-1.1201003119799997,-9.566272519680739,0.0720549836124057,0.17911144546648253,-0.31721855133917354
0.71,0.17423300264045893,-1.1351471133731468,-9.575404497719637,0.08078358004641555,0.12827588603902557,-0.3576423755004543
0.72,0.225417307065817,-1.1188791709776675,-9.599677807415983,0.12575946219785375,0.056631079522866716,-0.318362435378743
0.73,0.17650372033046696,-1.2485408908197382,-9.607129700606645,0.021591951195002096,0.15192722482977794,-0.33123789305190043
0.74,0.11758384335985421,-1.1273036557319163,-9.530672369429391,0.16371305829772387,0.18051546309016586,-0.3070222453597101
0.75,0.21673946704996339,-1.216544928208161,-9.647844524124704,-0.13404237105316802,0.11152624470010615,-0.6246230075175216
0.76,0.23427156310719752,-1.266089769035259,-9.575192686578612,0.1556791959250405,0.12320248887168682,-0.38760105353354
0.77,0.25711024098487556,-1.2217110088753176,-9.636807639356594,0.30460867436903827,-0.10813111300878661,-0.47501395079658193
0.78,0.24220053236858868,-1.19339526229646,-9.640758127603174,0.45855989212345005,0.14698011884802983,-0.5135746160194563
0.79,0.11245559399005699,-1.2906113474482046,-9.58135902860036,0.11643177203070855,0.08616725740953646,-0.45787632076586704
0.8,0.05494982742448701,-1.1891197475581434,-9.568253078252443,0.15198691700183947,0.053985757231005016,-0.22680386537561534
0.81,0.13571638388102947,-1.3230091656572918,-9.598687930258434,0.04910306719702228,0.21925512571655095,-0.29835726226851544
0.8200000000000001,0.19851410374788442,-1.2969069773649315,-9.585255114145157,0.020100406814559976,0.11440469424488436,-0.46992362284058253
0.8300000000000001,0.14222117144393615,-1.2378720760327167,-9.59776931679294,0.10178545525888419,-0.08486096020646955,-0.5397932956968451
0.84,0.16143070181581,-1.281082603537056,-9.56440689361209,-0.01732914367195089,0.20649432648748473,-0.330522954446955
0.85,0.22037531301342878,-1.292907444189512,-9.616185770153384,0.1276460900870487,0.211137181623821,-0.35467930018376637
0.86,0.13956867436886505,-1.3024747951334925,-9.61440252121499,0.20816300178230246,-0.2482219548005037,-0.5815001407956678
0.87,0.17072244785612875,-1.3518907447112443,-9.659241236830523,0.045611266391392485,0.24537698913579375,-0.5124741321660387
0.88,0.1280189155572105,-1.37384236041273,-9.685595824905132,0.06748778101449632,0.250194733949449,-0.5132466232342517
0.89,0.18205340405910608,-1.4281485677934347,-9.684440217449785,-0.058406437403921985,0.1995697781876048,-0.40226118827872803
0.9,0.30466441581568393,-1.4638439805192052,-9.574689520904403,0.05004024195290278,0.19065857375185877,-0.4785034371049376
0.91,0.259942120912083,-1.3928887181200458,-9.597780672197466,0.08670992491884665,0.29963651961003823,-0.3737343950210671
0.92,0.21769176478506597,-1.437110147885033,-9.632344840369223,0.09810223250120868,0.09308212510573699,-0.4755615060419348
0.93,0.1570055662321142,-1.392752292959083,-9.641007514525967,0.056339701064876915,0.08797849803592737,-0.6672047866883153
0.9400000000000001,0.07523670486552106,-1.4389717383077016,-9.609486070330558,0.09756765705189577,-0.0311393452108068,-0.5288089615905979
0.9500000000000001,0.18650782270374053,-1.4492340852516414,-9.698628841287812,0.05013425322063879,0.15327939904892818,-0.6795455224909518
0.96,0.1411858530904522,-1.3875602230083326,-9.570780653745164,0.19627831479967328,0.20224505222510636,-0.6569171671652261
0.97,0.2486312393311137,-1.4642512324498456,-9.683488628459049,0.10561155595132003,0.03122113169909463,-0.7005500877326759
0.98,0.20025284831323034,-1.447367965232755,-9.616413911890499,0.31608017842965574,-0.02792178786906102,-0.5460565819389387
0.99,0.22611600381848118,-1.4512179375123533,-9.500243801819218,0.24650128735107213,0.14239922329261462,-0.6749758931301
1.0,0.10649245057812459,-1.4709914016189694,-9.542764187479243,0.012528476657887394,0.2114917276304713,-0.6792133899431069
1.01,0.26608508005353904,-1.578997715202825,-9.609351001266663,-0.009181654626026797,-0.0029023087756305382,-0.758437709037493
1.02,0.23529358471854525,-1.5672511432403335,-9.639204203748148,0.06613329289137934,0.1749105765468434,-0.6111935215358789
1.03,0.18228704436926277,-1.4768022604807698,-9.562636608595835,0.1527662833928014,0.05112567152838262,-0.6523488125420508
1.04,0.1554947620075105,-1.5170023752103883,-9.73301960743318,0.19335009467277636,-0.15732565504678533,-0.8368763953604343
1.05,0.1387786594824493,-1.4632412541057873,-9.550361738667014,-0.01884769803916886,-0.024804543653347833,-0.5211304009302119
1.06,0.21120108719414518,-1.5060566464771485,-9.614747795338884,0.02897342732508,0.11574582033567987,-0.6686289206938634
1.07,0.1631121772236225,-1.4853121273410002,-9.54840976611222,-0.009245747194467052,-0.01174619374292167,-0.6089632797553223
1.08,0.19040362331000907,-1.6161967847632581,-9.564720250157109,0.07218012026404788,-0.052346392976081374,-0.7504659644390816
1.09,0.21399572201074912,-1.506887392053875,-9.5757717457576,0.14048145604211165,0.0024327612690270284,-1.0066483188365278
1.1,0.17746034966381463,-1.5621165072576626,-9.67536124717108,0.28900755180465976,0.009921228401049503,-0.899195334193052
1.11,0.21681496522443494,-1.6388785641750816,-9.616493962918392,0.16401131925571294,0.1888772969678059,-0.9801889074182516
1.12,0.16887218182530978,-1.5971978682306753,-9.623897211013857,0.20381998877021745,0.22042357851180416,-0.8345325821220447
1.1300000000000001,0.18756269188635455,-1.6651602586720735,-9.60765103487718,0.09615387954466523,0.09253523209273805,-0.9565203868084885
1.1400000000000001,0.20210701092672081,-1.6226382839215114,-9.596795308614341,0.26602841449169384,-0.02760815364992117,-0.891601454276067
1.1500000000000001,0.13924162462913064,-1.6014964479336953,-9.6443409675808,0.14400719801292647,0.22093500444562436,-1.1685931629449233
1.16,0.13374672777418645,-1.5682069608970806,-9.61187948513424,0.0887568885923064,0.2757153823593224,-1.1779744020148402
1.17,0.2278580003145023,-1.6253172253147086,-9.632633727531504,-0.03834888065119779,0.08242397021560004,-1.041373458818277
1.18,0.16128381759654725,-1.6490187640520764,-9.643487038686876,0.0684972829985922,0.029810368266147344,-1.2234194904752709
1.19,0.13009372279110837,-1.688199795007016,-9.603077172678493,0.09426182921307304,0.11021510196173764,-1.0222085546422266
1.2,0.32494876478962054,-1.6470016839467156,-9.564647871726528,0.232495848000552,-0.08366948547053363,-1.059925862210027
1.21,0.1955728470170674,-1.736100551024889,-9.620679866032669,0.11291051355761932,0.13949757580907265,-1.2179460292419948
1.22,0.2829097719506243,-1.78297265197688,-9.652725213167953,0.03427414851267206,0.11728418452760536,-1.1760342775403954
1.23,0.20773456953143213,-1.7500055910825494,-9.609449060606371,0.08047186831264387,-0.12486192239516444,-1.2517292382726346
1.24,0.29798780618098264,-1.7278062845958178,-9.566880207525175,0.16115529828926317,0.19947344813674814,-1.2986514300972085
1.25,0.19950948757823153,-1.6992029459858984,-9.595412051842107,0.17560134883148024,0.1396820071261797,-1.390277653852554
1.26,0.17698064707021352,-1.705337055931649,-9.482206295336992,0.14520878153328445,0.019695097920506416,-1.459955228894555
1.27,0.15595566604788635,-1.743719208819843,-9.587757663104767,0.19401863567828093,-0.09163627138586633,-1.3733577005487068
1.28,0.18735741126287817,-1.7352637055910465,-9.683928038380966,-0.04280663166149984,0.24762842260705867,-1.3145930387523692
1.29,0.16988563171688312,-1.695207079378506,-9.57957481566121,0.0113030229423587,-0.06583228091869939,-1.4788034563581438
1.3,0.1926180980530257,-1.727673559686343,-9.625438850193483,0.07625395089856392,0.04137691451775604,-1.4343959513966211
1.31,0.20398459091119148,-1.7771891332857712,-9.674898065659486,0.17588609636397662,0.04227041876680552,-1.3964876289028108
1.32,0.2030114227611248,-1.8168197192413402,-9.642576646354609,0.2643099636089304,0.21342734335185296,-1.4066938251493324
1.33,0.20481566857806455,-1.7186927191206787,-9.559607601368068,0.05217520780130039,0.2757755053457077,-1.5410945880199143
1.34,0.21402336627382054,-1.721610739519024,-9.617397176377231,0.14305584451379982,0.07793335506783965,-1.4726576387008912
1.35,0.21559740410971132,-1.7672637808875418,-9.635695277855692,0.2173874047608503,0.1848767333996222,-1.4020165577988293
1.36,0.193442451297608,-1.8717276700765624,-9.604635133637169,0.1631066614686628,0.09674859638054634,-1.5926535000628028
1.37,0.26013703396927607,-1.7189011066241164,-9.625076007850428,0.028199832559557603,0.20449903290757082,-1.5614768603639815
1.3800000000000001,0.26557062916253493,-1.7256638046944823,-9.554199759763492,0.13901693301498322,-0.021501253276524662,-1.4788751269076497
1.3900000000000001,0.18910378755591017,-1.6901465267337814,-9.590488057820618,0.06200995688726999,0.13621384314493457,-1.615381966333712
1.4000000000000001,0.19065750887281843,-1.7774845636203642,-9.578412481649316,0.24686116048338944,-0.0580705120934005,-1.783095217403193
1.41,0.28626786017065525,-1.7938361422766047,-9.587609254732424,0.12571096685203384,0.20732876287942414,-1.7500814851969082
1.42,0.22963022342445524,-1.762879189971767,-9.629600592381857,0.07033616009897158,0.13892238918985506,-1.6282419362411273
1.43,0.24747143749554912,-1.7566792971463712,-9.650081915535697,0.29141631836962784,0.12299528089319169,-1.7574724734778302
1.44,0.24217001748019895,-1.8046817746614778,-9.604491033241322,-0.1222300274613819,0.07639216862167506,-1.755743051688091
1.45,0.280938011049873,-1.8357984178885507,-9.62249001886155,0.21629897468792408,-0.03162634126060099,-1.7923839783706172
1.46,0.19098506483415864,-1.819888597541892,-9.6177957154592,0.24236680308752953,0.031018909684201693,-1.8493188829279898
1.47,0.2532949419907361,-1.759424716596753,-9.586616962608973,-0.007072534152397017,0.026472599519705292,-1.8550848354573883
1.48,0.19019828241702522,-1.7532827095904808,-9.572347395662568,0.047042738450476976,0.15877457202649936,-1.9806040281953283
1.49,0.15513585424979023,-1.8255031919545488,-9.56410388008111,0.14789544554082554,0.04019207568578923,-1.9169925215745045
1.5,0.2454663547349747,-1.882612245919043,-9.685992299806056,0.04794333331232819,0.26190018573964985,-2.1123633677394293
1.51,0.14964663689429125,-1.7583193130578085,-9.64232408189294,-0.011551324791779699,0.012561238902543237,-2.1370729865325857
1.52,0.25374033270225177,-1.7403950743100625,-9.614023325919788,0.2664629944576235,-0.004031720384191154,-1.7819764196106984
1.53,0.19051037391875983,-1.8035403930112757,-9.681878655242915,0.0988940743210432,0.04928383991320199,-2.019718383393045
1.54,0.14911570911233774,-1.7939206364942466,-9.604531027211873,0.06701411969865156,0.21872422944934602,-1.8441617626402498
1.55,0.06093436170743999,-1.7726185559529322,-9.575829709056125,-0.05445348238537204,0.19437465969253861,-1.9424905831979085
1.56,0.20547248062114798,-1.7392131767026378,-9.592556398015953,0.2061504612525512,0.06239178340193652,-1.9111841708884016
1.57,0.16453825206443418,-1.8505459382056053,-9.6528615647645,0.17682092967283158,0.05833005644919919,-1.8350059671266272
1.58,0.2757524248997491,-1.7658422539413405,-9.543989159547714,0.15697072590477182,-0.015773019826924653,-1.8910935300650178
1.59,0.24456955846172843,-1.802664351979596,-9.511771240092358,0.21616875086891782,0.13891829921773066,-1.9235133272737017
1.6,0.18573430281006087,-1.8600161480337152,-9.68186933258075,0.04738561021263074,0.0674287924299384,-1.8843264608523582
1.61,0.17691527949827457,-1.7836859761572015,-9.620558701274067,0.03345113895586731,-0.055750675905217484,-1.8487571553078896
1.62,0.27833139849722355,-1.7936097641215507,-9.652276096505883,0.15755118503901058,0.028955035972183782,-1.971566097270287
1.6300000000000001,0.11364209921667157,-1.7475500618268474,-9.517065129294176,0.02021811701264918,-0.00807928625331207,-1.8845853709544897
1.6400000000000001,0.1911575315714748,-1.8332861987365392,-9.69544389790564,0.11424604954829624,0.3092354099103237,-1.873280704962913
1.6500000000000001,0.18710340761802793,-1.7856522415275495,-9.585894215260067,0.06032069572815119,0.06668576403937589,-1.686958292418229
1.6600000000000001,0.22209103624569365,-1.7509251410415865,-9.68537857602424,0.06192377594655882,0.16809578904070113,-1.7765836357733946
1.67,0.21322853867957367,-1.7740527408363114,-9.650064877508754,-0.10433072019932435,-0.0038906288311976595,-1.7747852965906625
1.68,0.10733755836209716,-1.7422736461481423,-9.609931590568634,0.13898498903590034,0.14276265251789202,-1.6823309891627043
1.69,0.20720164542712544,-1.6951235689378448,-9.613861483490494,0.052437043142377376,0.10017260488365085,-1.8920999791948139
1.7,0.19304215928210927,-1.7911367665849438,-9.602019693195588,0.06307263533609286,0.11961427080874282,-1.8424956917870259
1.71,0.18332484523810294,-1.8516535692283076,-9.515278587812753,0.2070184123186086,0.0729545242629249,-1.82714220628957
1.72,0.21680181141257832,-1.7202846892440251,-9.493000974019393,0.1927336984658689,0.12627173237269101,-1.6177759427437142
1.73,0.2058643665473242,-1.7553575836432944,-9.557121435126373,0.09955342402082458,0.2947477152241813,-1.7390891174920378
1.74,0.19188711944547077,-1.777130385842479,-9.70565084189357,0.11740791225493276,0.21400653308025153,-1.7693908428949996
1.75,0.24147645940530987,-1.7670911604501425,-9.617645615457855,-0.006492601659616265,0.1553527817780927,-1.639648001117931
1.76,0.14130150446970982,-1.7579546078972577,-9.682940429190575,0.20182132674067377,-0.15844329200291044,-1.5115654021974005
1.77,0.12286047688694546,-1.762633452752035,-9.564970260314814,0.040929537929308805,0.06906773052805895,-1.5752259247755245
1.78,0.21325331748080537,-1.7470407376627852,-9.570405976614044,0.3002938876748191,0.21049351810710415,-1.5414756650776498
1.79,0.3114829558798055,-1.7187928690269916,-9.601378960069281,0.07927442473486344,0.07923700116131832,-1.4399104248096009
1.8,0.2154977674883356,-1.7595250115311356,-9.584133285648296,0.22009061560706097,0.08603199140529869,-1.4768374057904121
1.81,0.20240230310348212,-1.7365030343883514,-9.7031250993516,0.03145954029113705,0.16088916061615532,-1.233463760942294
1.82,0.2547926088099271,-1.7230163683675246,-9.577529955499436,-0.061770050215214506,0.13859456079916066,-1.3533090222944049
1.83,0.17957844017181435,-1.8041844662354019,-9.592027737829094,0.23915208744933458,0.029276697378625524,-1.5004065406547837
1.84,0.2527606186236535,-1.818164001961865,-9.586054155538683,0.09562772207625954,0.1976288826117743,-1.4476909956286386
1.85,0.2610862937452745,-1.6638665713836587,-9.561468746560907,0.13544777291909305,0.1422662168510467,-1.6016539428818388
1.86,0.16090705880105885,-1.746215607328643,-9.650123503255438,0.07284690295755514,0.07687254601472983,-1.3758910965446434
1.87,0.2635102978288504,-1.736978979900534,-9.615015061891503,0.19573992530938628,0.22802679573832882,-1.4028750989552892
1.8800000000000001,0.20996819688822216,-1.7518234698922845,-9.573490556741877,-0.21501590403502893,-0.06804405383823645,-1.279065653179775
1.8900000000000001,0.18502699623074395,-1.6543411036095241,-9.639388602016526,0.21731790552059116,0.109807522142425,-1.2667423965488138
1.9000000000000001,0.16036054736945773,-1.7909973465458082,-9.601092558777403,0.18857281229014228,-0.017201092543838906,-1.3443892440375544
1.9100000000000001,0.21814401075231116,-1.6934641935044152,-9.616728548787398,-0.030467780696589397,0.07599770828717684,-1.233303745746576
1.92,0.21903102056447993,-1.6308829160756524,-9.580538391938068,0.19717655345134227,-0.08815145345620454,-1.0522939244293015
1.93,0.188898184355683,-1.7463580623460602,-9.579760286430338,0.004468693164682486,0.1212833811258869,-1.2050525565810828
1.94,0.29664634027205483,-1.639734363785187,-9.6959798850173,0.08585338495782413,0.20302867402835195,-1.2720216507912654
1.95,0.17101379596036964,-1.6526173552967813,-9.590892900039226,0.02486325194498616,0.27361363842162034,-1.1710283896276377
1.96,0.17812639195248942,-1.695625029972479,-9.611070870187708,0.04170577376833297,0.16316985534861195,-0.9609983382616617
1.97,0.2103180410914465,-1.7024352473587814,-9.653455823147489,0.19574201938873453,0.25633852740505103,-0.9722540721365768
1.98,0.20806821915129692,-1.598162805178934,-9.58593084185982,0.12148052022035002,0.10172215549130705,-0.9378705389538761
1.99,0.14879392374213835,-1.5829700577980528,-9.664962377781626,0.04308848967011308,0.20663640218199486,-0.9837771132216196
2.0,0.23604786087533222,-1.5721737902478206,-9.567770995049639,0.22084802880136356,-0.05994819798550641,-0.9680804058600886
2.0100000000000002,0.17084394904455194,-1.5828016331374843,-9.6408964418724,0.17260056611826935,-0.04737497701473703,-0.9944629262480947
2.02,0.09762887151708102,-1.5734600663230793,-9.678286187373377,0.16290330736412068,-0.0408678916441704,-0.8157068911376971
2.0300000000000002,0.17069356326267213,-1.6727642601613744,-9.552082415506367,0.20592151470513786,0.275812208896185,-0.8804076307502833
2.04,0.1658083605051823,-1.5201078668149868,-9.554803786204854,0.0188783568064919,0.18992371160411606,-0.8027220462729288
2.05,0.15328989838499613,-1.6343956130376143,-9.602193364149437,0.017580729957906785,0.05292479232742098,-0.7734211273802338
2.06,0.17416665606958315,-1.638418543176206,-9.57782144409126,-0.019588103264554513,0.1870078713118084,-0.8973716836362644
2.07,0.2283421548019838,-1.516474015898845,-9.676419771010377,0.03208025842508537,0.11714424038425708,-0.7644757823901537
2.08,0.2291296175356085,-1.455000057169169,-9.564909358824092,0.11700529985513736,0.13009450602028477,-0.7831234844457632
2.09,0.2620151518993998,-1.4598290269834373,-9.645733157547504,0.05559533679659263,0.0640221977402051,-0.7860748555233583
2.1,0.23288194401565143,-1.5259995254669103,-9.657482037999765,0.054132744727587334,0.10982676373356876,-0.951619633061446
2.11,0.15795675608057141,-1.4926897192265254,-9.656602309654374,0.1663933304082429,0.05356500665013671,-0.7105153258633338
2.12,0.15450802495802998,-1.5147731007323382,-9.708284144556814,0.33392273167170955,0.16167894267333247,-0.668978857480771
2.13,0.21218479600216747,-1.5148266288364434,-9.556461266484577,0.26477163115901264,0.12827774430162242,-0.6045769059518539
2.14,0.2270977326135876,-1.4475201775385378,-9.63703390078979,0.0787664293650067,0.13217148334301243,-0.6393626882087834
2.15,0.17972041184869875,-1.4542321001047909,-9.579970230299,0.12148925312560294,0.09960893763389342,-0.7725660860373744
2.16,0.22261087737231566,-1.4544721737478516,-9.692493051764728,0.1984172818812272,0.10151251438165643,-0.7492115714514457
2.17,0.2621608200704967,-1.376019041959387,-9.531053229667672,0.17639676705306007,0.24794823750345135,-0.6702048700932516
2.18,0.23105928326274072,-1.4402644165990426,-9.565384495211683,0.13188647430072473,0.038561671297385275,-0.578461371685256
2.19,0.23428236239755418,-1.4860160694065,-9.612669980387537,-0.010739004167509308,0.1717523108023325,-0.7396673094837302
2.2,0.30784364593670527,-1.437763178518316,-9.531009525383162,0.22547426743324223,0.18551438398578213,-0.6314375263460075
2.21,0.18687755837207248,-1.4929238256452806,-9.617904399418006,0.23609527265432256,0.08074933082886061,-0.6161561939438096
2.22,0.13809344526638084,-1.360520221786608,-9.630712274128935,0.22168367054578533,-0.10899960789290422,-0.5459255644701512
2.23,0.19886892643631543,-1.3703554955018968,-9.681728477395366,0.33870570569432334,0.06693012876067861,-0.5261752986714682
2.24,0.2624876192618155,-1.4234823683021216,-9.542845012292391,-0.0107754923330593,0.10120076335055792,-0.5360224357352834
2.25,0.2584596891218295,-1.2558436494834748,-9.712878840003135,0.026058605804243948,0.19375135335189825,-0.494921418977607
2.2600000000000002,0.17808960079347516,-1.3284673522910364,-9.537066685076393,0.08378678367017534,0.12435148561814448,-0.5292069859307343
2.27,0.17132261534356558,-1.3375225033250253,-9.649106128474758,0.14422605337262476,-0.02846513695511746,-0.5374577346426096
2.2800000000000002,0.13867779470636254,-1.2616134081141326,-9.561452380594318,-0.008859633037318876,0.32499474878404905,-0.4182484063326636
2.29,0.09966055398486287,-1.2683857351471541,-9.680970955350299,0.07456099116442257,0.17323262825958194,-0.35100650998323835
2.3000000000000003,0.2951273644019486,-1.3020212514210707,-9.656525423626766,0.032525290403272844,-0.044216108173523894,-0.30550071227741316
2.31,0.2748991642831984,-1.3100136896714574,-9.656631481367567,-0.04685496602722067,0.11964195800911769,-0.423464635260997
2.32,0.1835530700201268,-1.274609770501643,-9.604386551982918,-0.025088719702424378,-0.02732807509582666,-0.4185554673201216
2.33,0.14200526987893333,-1.2210589136999026,-9.650251202082167,-0.053544903818741635,0.16839820015244727,-0.3406356726157267
2.34,0.15978662843437125,-1.2463761235482673,-9.648253608905593,-0.01419013404836697,0.07219187900192471,-0.3759858687337546
2.35,0.25436224793593676,-1.260304015302684,-9.711756174198769,-0.0854891108464507,0.08940061385988757,-0.3254060301958911
2.36,0.23457130231595485,-1.183676586044519,-9.649766961056054,0.038939972227945874,0.13335492345205352,-0.23015146519908877
2.37,0.22524435594171008,-1.1286987721010142,-9.64705454517163,0.23099381039803957,0.24046261934895566,-0.2799656097191179
2.38,0.0797491204796743,-1.2067112355308636,-9.591643130795646,0.13776759813605624,0.2610307906199101,-0.29014799790171675
2.39,0.14914247363192878,-1.1903967468633632,-9.606770877570243,0.19002588550450655,0.020119013275117253,-0.3759239123761525
2.4,0.22145575726086034,-1.2160502244814237,-9.570020152020897,0.11864123682923472,0.09773724314785162,-0.38086700742525714
2.41,0.255808876285889,-0.9818821839035514,-9.569669707104723,0.24942795577482776,0.25356142696883066,-0.2376136256934203
2.42,0.24191229632972677,-1.1067355281521272,-9.577854008392404,-0.04892545405908999,0.1407813507255298,-0.2897273263906529
2.43,0.1846047247453852,-1.1162940129669625,-9.578731986967739,0.009120659485848073,0.05574262224600009,-0.3986546285240231
2.44,0.216663324034932,-1.062242710730147,-9.596868354656115,0.23847192898840053,0.15987028370087328,-0.18165341197044907
2.45,0.1997067663589971,-1.0087262139207704,-9.621910023709077,0.1440188080286633,-0.06850010615996324,-0.30928911888256316
2.46,0.23034928328016,-1.0928828677034084,-9.65539641269617,-0.0556604441570103,0.06673002897041033,-0.07051134494677272
2.47,0.17242753323503812,-1.0475099196787492,-9.674463941485211,0.1752404602990287,0.044599734946304086,-0.187198802958799
2.48,0.2073728550732333,-0.9879555637049091,-9.580769407427464,0.14970244917143438,0.18892385430041245,-0.3786476887820305
2.49,0.15943572347436671,-1.0884818562780434,-9.665358251769762,0.14366023781645287,0.15964357904871104,-0.25727926680042357
2.5,0.17272419138158954,-1.063811320007104,-9.661025504375747,-0.0238761736134651,0.10489069295083661,-0.23130592550491472
2.5100000000000002,0.12411958394998139,-1.0184372599237117,-9.510689569901402,0.026732650307995362,0.04816899170755717,-0.13695658757966667
2.52,0.12234887657812883,-0.9991465053025461,-9.650445392285315,-0.03916396481709997,0.09119736824888071,-0.19934355232870068
2.5300000000000002,0.20525770812322608,-0.9686373444711154,-9.658162598226955,-0.02551323264759736,-0.05682958928474088,-0.3244752160470331
2.54,0.15404837700212506,-1.0071404269020077,-9.555806432511897,0.0011768709960418705,-0.009264068583432733,-0.17895137242701356
2.5500000000000003,0.1943875203257018,-0.9286021224146057,-9.638005720387035,0.23820871625145124,0.09870543996609925,-0.23919030054732146
2.56,0.18444817486880424,-0.9173441382700334,-9.640520911326085,-0.015377421237424513,0.1357746749476016,-0.16905301904044248
2.57,0.19012038792856192,-0.9098923582188752,-9.649312303729424,0.1410039165556273,0.02209072491268453,-0.16847191129948033
2.58,0.11007442672056872,-0.7820954241394125,-9.638562543426067,0.05750636033874282,0.17704568209808563,-0.3352321170377477
2.59,0.2164691834576464,-0.8806949297070168,-9.609326601434136,0.01283796192709917,0.12381338774834287,-0.05336989177303256
2.6,0.2060356333487615,-0.7949851861340629,-9.61134454608974,-0.03961532982039545,0.1671782092846688,-0.22782529275256283
2.61,0.28129985257985574,-0.8540725815007082,-9.674941232922095,0.10457730481761375,0.17159384526918403,-0.2384480796176431
2.62,0.17740004612382235,-0.7574022398610971,-9.667094154775974,0.18226747743945632,0.03072072376578315,-0.2511202957602158
2.63,0.18580458533738192,-0.7652364455395069,-9.66313204166114,0.15433089086517454,0.06032557429511265,-0.03231761091623225
2.64,0.18329833329880488,-0.7001627333205054,-9.633419056925097,-0.0964713571355452,0.1773038216174192,-0.3052957824572644
2.65,0.12866401587142723,-0.8190816359906159,-9.577405726851234,0.14510349269964704,0.23583694623170465,-0.2014881902329513
2.66,0.24013479201010485,-0.7900662891253156,-9.567808193704025,-0.042794495238277275,0.17106528152788675,-0.09042059558379248
2.67,0.17125865780241017,-0.7007742124721223,-9.526923568661806,0.21059177133661577,-0.09788710461571687,-0.0940271460807888
2.68,0.1502582147374082,-0.7037836421738082,-9.608485962225902,0.30692510189911215,0.2667665670893752,-0.03925293120245438
2.69,0.24812364813810606,-0.6432696819764008,-9.61722473724873,-0.011793388699356672,0.23758204062076146,-0.03362198751987075
2.7,0.26410730345626665,-0.6276394598661164,-9.562494755867403,0.09230975911407355,0.13840013089739933,-0.19550819988816667
2.71,0.20319131359389203,-0.639431573237613,-9.539660428877692,0.01224507018563499,0.1575394476698744,-0.16327968333199824
2.72,0.17781150592922693,-0.7212516993150775,-9.622637036562516,0.1998395297388999,0.29780472240332456,0.06255235588536817
2.73,0.2962884982951163,-0.6113626455019525,-9.612386626042293,0.25625685196381,0.16621713347288813,-0.03799644639030955
2.74,0.14549155850383322,-0.5449638924071449,-9.657767677140084,0.16092476864210048,0.26462316994440716,-0.2875680702608947
2.75,0.1709937212446368,-0.5485710394024097,-9.622332952862358,0.25535180816298186,0.10225615372512517,-0.03658758354285732
2.7600000000000002,0.19597056265156565,-0.5534733423309892,-9.603539639951117,0.150514016961963,0.04569074751603457,0.023602863982006825
2.77,0.2195525743210186,-0.427714528300341,-9.62003134161845,0.08970632215626483,0.028396947145830714,0.025033018278711225
2.7800000000000002,0.16662142583180922,-0.5306346911630253,-9.576638555869463,0.08591471993520801,0.09596995977666091,-0.04811656777757051
2.79,0.114531160822018,-0.4687388509475991,-9.66436965515351,0.15990299694528004,0.15887017773865,-0.15309067186520062
2.8000000000000003,0.289940453650811,-0.4887140702247515,-9.584176089089064,0.11860160287335077,0.14446184624458516,-0.15801409761923887
2.81,0.1020752022356028,-0.4374054269429188,-9.625078125412324,-0.06339192451706074,0.215453040738031,0.059581870789329
2.82,0.2285254116821392,-0.40571284401890956,-9.562900215006945,0.10997550306005521,-0.07004952628761213,0.02161523736757784
2.83,0.25319873277294314,-0.34334618095375974,-9.604398709433339,-0.07226098994309449,0.1700199786291533,-0.0490388232532854
2.84,0.18393023643454035,-0.404634587749441,-9.621544069508701,0.03885427450464424,0.13462674147481027,0.061976672775607006
2.85,0.1319037696902135,-0.4202114090126035,-9.59013275386487,-0.02393435862788669,0.0903238643664459,-0.14647580865284096
2.86,0.27528312159053175,-0.3913776780781469,-9.521691500838685,-0.17684806288126517,0.021662039746143488,-0.08317394413390453
2.87,0.21729376135484912,-0.34884202861708974,-9.628897180178086,-0.013531670516976929,0.1654603801114628,-0.05722408057185441
2.88,0.2424903986760276,-0.2416247826319754,-9.605967935072565,0.05863789603651086,0.0904086098855287,-0.11358546512199988
2.89,0.1749062555045423,-0.362349685646473,-9.654603809744621,-0.07730199131244578,0.1687264403611527,-0.006576209145596423
2.9,0.1959530004187768,-0.21859484844818183,-9.50524932495602,0.2805241502540118,0.14985996183365452,-0.09674029887220773
2.91,0.2579104125336457,-0.2924727580536445,-9.675791622960363,-0.010103643982176377,-0.08701482895399679,-0.08083619832695096
2.92,0.2213039814359301,-0.3045281007759551,-9.582258357742665,0.10528425989340873,0.1056651443585935,-0.10269202501338728
2.93,0.24119204261985255,-0.2522928887380989,-9.652872411765332,0.04173917967411377,0.1617092104026906,-0.07947408224170013
2.94,0.24573210669295437,-0.13813936227514684,-9.726666550660251,0.22906125747788664,0.14529148534379116,0.034826692090643374
2.95,0.2280178540042429,-0.24266338014360694,-9.654692439280295,0.11265217922872525,0.058960898627547234,0.1019944210604433
2.96,0.06749327613246081,-0.07357994878996582,-9.633067982610259,0.11195117967417127,0.11076483081516303,-0.019806804159732655
2.97,0.21943241978716432,-0.16865627772804076,-9.583756594662644,0.0845908019312219,0.07338213654787568,0.10228375203795471
2.98,0.2452426179590294,-0.11091971131281775,-9.585405319906979,0.024518070979745926,0.23314796590338743,0.15466621225178234
2.99,0.23520916517364598,-0.16929690662712693,-9.62230402104503,0.05232207622291947,0.1378289968213082,0.010011355238462555
3.0,0.21416769725626253,-0.12802321694703517,-9.655779543806196,0.15170969074372606,0.22782980541415898,-0.08050798867075296
3.0100000000000002,0.25568592412691227,0.021542953612937787,-9.644060503271541,0.1728878166360589,0.11851610449647604,0.045560304165976735
3.02,0.2054318652241916,-0.04425926365400082,-9.631581064258413,0.14552111326295333,0.13483810993658027,0.17896626653389425
3.0300000000000002,0.22116603978334626,-0.045952990160369966,-9.570810148360426,0.14288153244957572,0.19005945636353688,-0.020244100005133353
3.04,0.19597221279950408,-0.04177108475372601,-9.537011915359301,0.06539923571834444,0.29182807573650726,0.02866000088034612
3.0500000000000003,0.12355135022536483,0.1141879383244139,-9.55769931481781,-0.14476766068695832,0.25680120800887196,0.0703778904630516
3.06,0.27583424485653857,0.0506607543239983,-9.528351270585787,-0.041988178040740315,-0.04986646733945249,0.11451870576153389
3.0700000000000003,0.18455121218969128,0.06402185651560566,-9.60646380085576,-0.06856944493643144,0.061773051765240845,-0.04625744065541912
3.08,0.22728718371626644,0.18831696506366447,-9.675552286819842,0.12471401859088747,0.020364951579734822,0.022568430984424875
3.09,0.25592665933234776,0.11810145854239469,-9.589114585069026,0.20989083693590183,0.23041376066929498,-0.03645034830077298
3.1,0.25196116778481115,0.06769357704275761,-9.637738072121461,0.26400654278849495,-0.012853395197618675,0.17456747172972134
3.11,0.2106524010083546,0.17783916715223133,-9.594905990683573,0.11335391474018094,-0.023018801649064335,0.1285451608805936
3.12,0.2287316651534468,0.13471049271436247,-9.67932904416412,0.08885385924890174,0.05008147483868562,-0.11644509946805709
3.13,0.19220199905208096,0.15212953355499886,-9.630724710067067,0.2161499685724107,-0.02089978718157784,0.1963638617813829
3.14,0.17313708504021127,0.21739235087771305,-9.60014261588873,-0.05598833821559476,0.09978569641420881,0.21168969237957333
3.15,0.2635383716375705,0.2594842072652706,-9.624683983479333,0.036774410029754595,-0.03774594842434345,0.023225491580228547
3.16,0.18547510253782687,0.2549007847811317,-9.649505414688639,0.3404139490521696,0.13428031802469284,0.048483138772284995
3.17,0.20944550231958659,0.24136821767867372,-9.642836163280547,0.1562477773765756,0.2755698761423866,0.07349331976092355
3.18,0.1843223065768047,0.3698883855609367,-9.649374118611188,0.035094763825999395,0.26652238166499753,0.12171593056960439
3.19,0.23475765301549556,0.3800218240659964,-9.654855504383569,0.16101221371016244,-0.06993252088106247,0.08377497432196554
3.2,0.21027980146991293,0.3376708719331787,-9.716682712744383,0.2342884797044569,-0.04038000972112077,0.03601654062441252
3.21,0.1760654564446177,0.2694741891549274,-9.588333726084128,0.20693098848147828,0.07868047692994039,0.11516982053135724
3.22,0.1709887369174617,0.33139743348547984,-9.475440673213724,0.23274422646330176,0.16758077043618902,0.0038756065604581558
3.23,0.23430343272401521,0.3657236868674697,-9.570518835627956,0.026135332660803298,0.1324337073113697,0.12216441231597976
3.24,0.2395875200953294,0.39588567790516505,-9.70612129330069,-0.07162906715611336,-0.026155690368576734,0.246876879174089
3.25,0.1864726099608246,0.39478246975616554,-9.601404779271483,0.1622153701318519,0.18107848441710783,0.12922590916811524
3.2600000000000002,0.20209936649843904,0.48047417523966235,-9.564530671654174,0.1491921869090031,0.06635173693124194,0.24796283535655203
3.27,0.19417761829596752,0.4285978220453678,-9.62450015834835,0.3196466024448559,0.17693454249379545,0.26588394899012147
3.2800000000000002,0.2677147430551625,0.4714330008088509,-9.665652096721006,0.2430254013121735,0.1321017363460651,0.16106291798082792
3.29,0.14918955913672527,0.5024149614841006,-9.611670713002056,0.22864040115992454,0.21517052890952296,0.07224975002869213
3.3000000000000003,0.21875800176539062,0.50170052802747,-9.63313441127916,0.06661768757918679,0.09408142697949268,0.1574356449689836
3.31,0.18591206208633776,0.5075024029789407,-9.596277187049871,0.0860752830729099,0.09729147960275784,0.194051976771828
3.3200000000000003,0.1239780436108162,0.5924641634817704,-9.598724925858255,0.06440291510737454,0.08342305878118228,0.033919330172149126
3.33,0.25149471087096037,0.613893675180595,-9.564625640561468,0.16660229603889626,0.18731246378234317,0.17746981129053843
3.34,0.24903033855633436,0.5969595578657991,-9.660664488741254,0.10711742923381948,0.11499960430509362,0.1791690703165863
3.35,0.14406213683975658,0.5781625997502198,-9.586065408231017,0.031425106514866546,0.023436006578079538,0.3426495355289138
3.36,0.2411249082999629,0.6603101659286705,-9.605132524372694,0.07268220605541177,0.13047654858510357,0.32238427927808255
3.37,0.19857673069594572,0.5750138478026565,-9.66863570400463,0.14413340535420857,0.10455114520757591,0.17987333865511962
3.38,0.34622048185009596,0.636413064497394,-9.576228968848325,0.21313416616641384,0.14859707524014473,0.12060662049953849
3.39,0.2231920518738095,0.6525163614411595,-9.638939052760055,0.09380090274470826,-0.020571785832487532,0.174802873249267
3.4,0.19008184067859482,0.7586370218994822,-9.611499915771361,0.0375366639127682,0.06286897943844737,0.13849883614130148
3.41,0.17632864337593826,0.7185866534043033,-9.628418774858817,0.07648867789242843,0.1762832901578667,0.12817285688726598
3.42,0.16552378923414496,0.8095137388150311,-9.700640964244343,0.16441814148368997,0.06718293029261788,0.30727390331470333
3.43,0.16477108233324458,0.7723637943881394,-9.61620470025148,0.021174899135962405,0.33475475903429464,0.26556068477735184
3.44,0.25845227046254393,0.7998883432870714,-9.551730658029058,0.15242406421704296,0.2563657513277844,0.26525888764102523
3.45,0.18552367407481357,0.7801598419120448,-9.660739111848669,0.053499812405856086,0.4237584593183714,0.18436505890593952
3.46,0.2209915652735916,0.8634083060112776,-9.677322144547974,0.016360703648464314,0.12301010877053677,0.33476760582457876
3.47,0.2652733824654787,0.828969236255082,-9.535446106165027,0.21228874576011417,0.1370458319973941,0.243478665279027
3.48,0.13944199782873223,0.8496042895352081,-9.485846041754618,0.16088793571481186,0.08170252542955717,0.20709574096160577
3.49,0.14647031843897534,0.9222059441279045,-9.66865679436039,0.271533551030002,0.12180589156976372,0.29219568215540503
3.5,0.18383815776136017,0.883321770640312,-9.583370517765683,0.054943382576030625,-0.05851178470213897,0.3142292194248445
3.5100000000000002,0.033641824589369096,0.8368192535911387,-9.68814428474502,0.049062019589774554,0.18012220382797967,0.1405701147184503
3.52,0.2213545486972528,0.8350238616496068,-9.680987473409415,0.20372475302106344,0.1545657404425666,0.09026580661069208
3.5300000000000002,0.2814493620713083,0.9518787814574197,-9.698579080562475,0.12880207210110128,0.07274515826248082,0.42534371374087854
3.54,0.22620167137941685,0.9334980623268125,-9.587832176787549,-0.0028844062884701704,0.1430696801294033,0.3566336432857622
3.5500000000000003,0.24420287121687506,0.9976628669286365,-9.578181334341698,0.07432333822450822,-0.08074854446584112,0.2891505524360879
3.56,0.18263684879633185,1.0108028280820303,-9.635842679641195,-0.04203198600880856,0.12015192355381447,0.3553918401213413
3.5700000000000003,0.19583985858359135,0.9799668105383417,-9.62769457507742,0.05913197603597589,0.052927743220408704,0.246060341608253
3.58,0.15459230882237443,1.051016587537486,-9.605433578912383,0.1314183323642042,-0.044503926712237685,0.2846360872065428
3.59,0.1947836066176336,1.1616405474786629,-9.568929396604666,0.13295358521400716,-0.016167814805961703,0.35271798803118093
3.6,0.17789395506551184,1.1188486778352216,-9.533159816601998,0.05756291829347431,-0.04306809829168515,0.28950270594093636
3.61,0.24781134858148823,1.1233139993586885,-9.524757689837063,0.025692574033259682,-0.06812188630744029,0.41080315533419276
3.62,0.25565769339871847,1.1185262634452484,-9.536351782940226,0.06299482110073179,0.15085648551767425,0.4884247859554395
3.63,0.14545534280197223,1.1731330400460551,-9.607083390545839,0.020971388820435047,-0.12915115185617349,0.3290849163903887
3.64,0.05477083427411364,1.1633857220975414,-9.583019929061805,0.10586183717275101,0.14309139910524757,0.452236624991156
3.65,0.2537876184369071,1.1570318797888202,-9.58532037523398,0.08055791709764433,0.1742691767002824,0.3652836566263735
3.66,0.1558871728249048,1.1593612548315697,-9.599854523926517,0.018208001472984806,0.1323227231285153,0.2929889983278452
3.67,0.16084521462242513,1.246542177179972,-9.642701812394881,0.06142377138666924,0.29857324795614015,0.32945121401073396
3.68,0.27889213548681807,1.2017869218762685,-9.669325203884114,0.05060124090560733,0.15811425705809543,0.23295508854825417
3.69,0.1445036253169072,1.2587708424508477,-9.608935031170075,0.011137102972110582,-0.04232448298150204,0.3759474732153002
3.7,0.19950245899951513,1.208473680463347,-9.630904767912568,0.14966843604065452,0.05512350180093026,0.39055055685036055
3.71,0.2385455350821767,1.2904210699953027,-9.713935590421935,0.07553735505198925,0.04745491645133644,0.2648847932210797
3.72,0.2161531346355785,1.320398101800131,-9.634743643393852,-0.004503974786913181,0.19773707541758478,0.34763727378569054
3.73,0.10556810872890722,1.2919109573549223,-9.616448791341496,0.31943619411780555,-0.0452558722406024,0.471467594216181
3.74,0.19715341099171949,1.3718824950824497,-9.637507759126565,0.206027362138014,0.31158927712101675,0.2660087476402517
3.75,0.22857219687722927,1.2941631271017577,-9.626322543900836,0.03451798179201497,0.15135873487235652,0.43590442605484025
3.7600000000000002,0.25248099378430544,1.3080749113170527,-9.519426984114615,-0.006347734773684971,0.08394474941738658,0.35898145671241233
3.77,0.23950041399253694,1.345728851864057,-9.554067768411889,0.1404102944721393,0.19140796023888404,0.39136602290665357
3.7800000000000002,0.27262341337806834,1.4731825330321349,-9.63925070595181,0.051677855584800016,-0.05181816491951152,0.3248999045709139
3.79,0.2101542389418101,1.3653897477725632,-9.574423289935226,0.08196577856045134,0.1306075072061178,0.3881081984531667
3.8000000000000003,0.13151698883857954,1.4004675502031756,-9.643309751595947,-0.03533479915215276,0.3862084624648523,0.49662478024369505
3.81,0.16936438378999388,1.3812691626167244,-9.5899106114242,0.1203695071524809,0.07250463479070407,0.378550168897971
3.8200000000000003,0.17439197423502165,1.5094201864679881,-9.615296591324867,0.03850025779309849,0.23988264593573566,0.620954349246531
3.83,0.1977554674426738,1.5279646104802227,-9.62293905052615,-0.1238060470028966,0.21955894209214954,0.48921640460975047
3.84,0.20635166885173054,1.5444751323743102,-9.461737389632209,0.13896719125377027,0.017290738561520608,0.32227779461979805
3.85,0.25837546254615185,1.4856846402318795,-9.620032593784947,0.09857830614471809,0.25313153304921754,0.5297644573071514
3.86,0.1991308694139533,1.5137516158910802,-9.566718506535187,0.10066696506279411,0.06589930777300279,0.5925289168387239
3.87,0.2836472654399094,1.4736625064982674,-9.644778210133683,0.1369558713230664,0.11524066258240956,0.5170371141106954
3.88,0.12788129911685828,1.5827060167722768,-9.558329201263598,-0.05803719742381094,0.22667081904922456,0.6475500140467094
3.89,0.22243417507619584,1.6698270963033572,-9.67403083050626,0.18593253562217177,-0.07661660163469558,0.3203029124503749
3.9,0.16054356726051086,1.5688578723813245,-9.559945457783014,0.04509163349038242,0.0823965892622722,0.5323728889916947
3.91,0.2690707104006429,1.6482321450917155,-9.595560965496606,0.08741809913973991,0.05675500734982386,0.7954145547811281
3.92,0.24785606255465095,1.6080386652488348,-9.645747502917633,-0.02534366292689022,0.0242798184763105,0.4127254150463405
3.93,0.27796069458081474,1.5598941547622254,-9.475919153843458,0.07488636533667559,-0.11233374016019662,0.5730325102703308
3.94,0.1244885613420344,1.608474756632412,-9.50458921849897,0.19330224278828506,0.018721096379848423,0.812077893210936
3.95,0.07910607764978564,1.6367847331722396,-9.632267745871193,0.012032322966811948,-0.0019042499217045705,0.4098569624396807
3.96,0.237596787043024,1.7112422783889019,-9.633938780354486,0.18892479458546396,0.08390241519022026,0.59271544287391
3.97,0.04287540029861453,1.667214892166456,-9.673215898158945,0.09053450086229752,0.004375989303474853,0.6768397962992061
3.98,0.2777527557580418,1.6732957826178074,-9.701761928625658,0.1861140302140534,0.32117433884222946,0.7467071578483394
3.99,0.19991500342447485,1.6610740692816057,-9.647913822896534,0.061643681823007064,-0.06534098530641355,0.6554058854590415
4.0,0.19895436608738762,1.6657226630031527,-9.576525382772816,0.053148219254990414,0.08895244717235612,0.7931730353550552
4.01,0.20567364472922953,1.8014188247781961,-9.604944011059457,0.07921343590729836,0.15438540325998074,0.6098030161564187
4.0200000000000005,0.18841421667796932,1.8455565918810366,-9.609330489620458,0.0953833686294272,-0.01287444659334594,0.6706779225838566
4.03,0.24230344169185697,1.681832535002267,-9.611756560762766,0.08741549754578207,0.10001078378627566,0.493721109455482
4.04,0.27806142578945436,1.7325315786771045,-9.542718293972912,0.09014400392842477,-0.022075924679290468,0.5968314871284628
4.05,0.18037849144972093,1.7348067374090843,-9.690721997703264,0.04436006365034204,0.11338941299191459,0.8219079008636735
4.0600000000000005,0.2017406636854695,1.7813042154000804,-9.60397437749639,0.039272605231030135,0.04146544103085712,0.8485701889827341
4.07,0.23069136195725032,1.7612419967037367,-9.573996884081714,0.1948174225517991,0.09448331700703227,0.7198304941988245
4.08,0.20197449056466726,1.7642743132055956,-9.659856403861447,0.13086406408365006,-0.07391879319751901,0.8351023513417892
4.09,0.23897569001446295,1.8147088368541044,-9.66029890567294,0.16964609216003662,0.12006132332193772,0.7833501784279902
4.1,0.19977958181951577,1.8075986995232287,-9.55729838414221,0.2398876508535688,0.1738774420371747,0.6861690056328807
4.11,0.3359630556999388,1.8808297302819161,-9.673881760212378,0.19823157804323177,0.19497174182598453,0.9546624211962818
4.12,0.22204476121174116,1.8576501525376783,-9.541381908357014,0.08455053729895701,-0.007542093168763725,0.8975185251374674
4.13,0.1317985992204761,1.8769050857558331,-9.622102067250927,0.042013679774445915,0.12178116784424396,0.6815099458741124
4.14,0.2821056732665117,1.7967343343297784,-9.621413246576779,-0.0007641155867254001,0.1838956896059005,0.7798471067364876
4.15,0.08805520368851377,1.906707644968034,-9.560934576232974,0.1320334105286566,0.018159368312251373,0.8906344779997556
4.16,0.18348566651989162,1.868443936344321,-9.622760738452262,0.09575504920121104,0.02001006978830204,1.0869110144304257
4.17,0.19788455429020207,2.0217691711681813,-9.600814240456307,0.24023364474196374,0.07597624383884322,1.0388887697872
4.18,0.26095686996922446,2.026928489440452,-9.734473395099007,0.011184063406930678,-0.030937535927096554,0.9370540933980939
4.19,0.28472267650405314,2.0049157754472744,-9.547143748205468,0.0011386727235424,0.19192879050917758,1.0450369345973978
4.2,0.1676020061461085,1.945124617620776,-9.525951670889478,0.23163786474474823,-0.031360584704071076,0.8913904778754094
4.21,0.21566583179699442,1.989866924256746,-9.562002718493252,0.04880968402861357,0.09838469724514691,1.096481723748816
4.22,0.0823128848657855,1.9385810375200452,-9.562701885537713,-0.0684468215393984,0.0757759948320291,1.228705886184069
4.23,0.2929764598011945,1.923442385180092,-9.618084437308033,-0.12885475925868892,0.15795937931004972,1.0218582623203016
4.24,0.2235330724772478,2.040397422265538,-9.571013124796197,0.27133006851664626,0.03330788278468655,1.0801846689756582
4.25,0.21462442444826024,1.9294720194150183,-9.539538920284697,0.11805491859326722,0.13749805690902642,1.1061864939103778
4.26,0.1895887074682085,1.9710919178620487,-9.490572998746782,0.16909735233136197,0.19374448124639035,1.1507780661029323
4.2700000000000005,0.2329063666949785,2.074043155045023,-9.622131217537616,0.20329527452969431,0.20811001730541884,1.261861796931745
4.28,0.13036741597410123,2.0259826048669254,-9.584645019584466,0.14076688655448688,0.14325220691808396,1.1331524478997865
4.29,0.11342862156894004,1.9579338078083657,-9.642240461500986,0.18334038118703172,0.21022708832567352,1.056310303629336
4.3,0.16221707516252018,2.093610039188989,-9.650425793588148,0.02930218536108946,-0.07475477038127015,1.3489223691657586
4.3100000000000005,0.29215352411596085,2.1296608620659927,-9.647248139343967,0.1248502018999635,0.14369450067850142,1.2704475119896765
4.32,0.2612606507833934,2.031484679131024,-9.622377460722346,0.06968851130344039,0.12110591766977656,1.3335592867497201
4.33,0.2104758991758079,2.032699030114508,-9.699477813587603,0.3036567539020023,0.05145862236965448,1.2248656463037764
4.34,0.17338214124002124,2.1244895269631887,-9.69791166479705,0.13298091303423665,0.10724159827205278,1.2335030901416675
4.3500000000000005,0.23769783665462318,1.9894604405556382,-9.588816641338148,-0.092419878695113,0.2539023109455691,1.1276780903293502
4.36,0.2587442872285557,2.09065391985741,-9.622081807372734,0.07071437315008222,0.17709294655051439,1.488235209303474
4.37,0.2630428944295874,2.117987526648345,-9.704947428523049,0.06510759357550167,0.07570145983749126,1.4662158556521387
4.38,0.2071674771398369,2.0682694476324044,-9.694545734649497,0.07328057974334667,0.13974299727857775,1.4149153159052332
4.39,0.2378074238990686,2.0622578106890117,-9.601269893989233,0.2583336983710316,0.21234605972645834,1.4198564418681854
4.4,0.1617990970101003,2.0726900782200297,-9.661793374368056,0.0071549647676961425,-0.017036998097956627,1.308070098309226
4.41,0.16657941331456547,2.182740404608819,-9.663474408380756,-0.030573259339146897,0.16188960471073233,1.379315634091365
4.42,0.14076245268429935,2.0662568703027913,-9.529862052858961,0.11863980786619886,0.24414770352690715,1.3171302609117697
4.43,0.11414699250929476,2.1314128368588348,-9.611148107828631,0.13398872700374614,0.18383357780211143,1.718317103717041
4.44,0.142459852700572,2.1815171436494056,-9.586341841847759,0.16061555265484823,0.1302661209534354,1.6090894612161586
4.45,0.31604711489073484,2.0944282027746803,-9.650455247030752,0.2091492830882466,0.09237146313161278,1.6013002947780408
4.46,0.2761284221154819,2.1067016634609743,-9.622451586400794,0.19667668399438887,0.16894990581729324,1.660863589006414
4.47,0.16538652523815023,2.0985649859071143,-9.581032970847827,0.1604695058075559,0.0048222383089708,1.8612241631561515
4.48,0.24379459626090833,2.1304249694737596,-9.621796010650101,-0.03752077556819319,0.09157453785124561,1.8221564380348847
4.49,0.12345315012339873,2.1006225497715896,-9.568917027983074,0.19555971636880531,0.15226563448061142,1.5719179221692976
4.5,0.15273941082970516,2.1461775183592713,-9.538667241550334,0.11001363975295236,-0.04824950207042336,1.7400684972344727
4.51,0.264501677002601,2.1995471316888455,-9.491044516120908,-0.04112868984842316,0.11153448346579663,1.8207807165656467
4.5200000000000005,0.27529836659139617,2.215335698148991,-9.54219349402925,0.10200534184805954,-0.014664743672426123,1.7617462340749803
4.53,0.22539006490775249,2.207788505093926,-9.616263679865927,-0.043146582204042994,0.06947863179758665,1.772124290595375
4.54,0.17426237170432152,2.169146641482245,-9.630253569069337,0.13221814516771505,0.12445595635614165,1.7726430358647025
4.55,0.16853589400663518,2.152141136885056,-9.586939926465925,0.14270281679755037,0.14266618116342972,1.9177980203800027
4.5600000000000005,0.21651784570745847,2.104023313670544,-9.606726506607913,0.07416187812511098,0.040176825692617726,2.040271904169514
4.57,0.20055244272500916,2.2558377818571627,-9.587769350460263,0.29789286366342516,0.04432570629520088,1.8408814087186212
4.58,0.17132085473830763,2.2225927893176993,-9.649961851252211,-0.08313756989352936,0.13383844285699206,1.9464841442026686
4.59,0.15648361850886738,2.173282959538441,-9.576936369209244,-0.000580248367489572,0.014727248186072184,2.0514380750740435
4.6000000000000005,0.17110828268127526,2.1716699820858216,-9.587065516844586,0.13367019171060468,-0.08027472894383625,2.0174723561719405
4.61,0.3078056358108922,2.156400549129063,-9.546131110355523,0.07607664912897641,0.05183601631394648,2.070939862242988
4.62,0.167349585453123,2.146426853745064,-9.70866311792973,0.17391285170272336,0.1097792707698968,2.039628097958639
4.63,0.24020269639573524,2.265952216316485,-9.603417617940616,0.2124022311696127,0.03278408953245007,2.094292646589866
4.64,0.22704101365181872,2.1945088333328027,-9.62253399173134,0.11246970135262348,0.05968805556638056,2.162926633572846
4.65,0.20832614541269606,2.1603316634123595,-9.605055279312635,0.13838470557978072,0.05180612508372034,2.1540872839919176
4.66,0.24699056898524352,2.2107572605384025,-9.64545667221134,0.05447879349096366,0.22552252813259283,2.0169810604504925
4.67,0.13144755435420352,2.069869774331169,-9.604513911674871,0.31995882845184564,0.04305598637634622,2.3929934536600928
4.68,0.16718629521479944,2.223889722627071,-9.619078654070297,-0.11909540452308828,0.08218670118105878,2.113375249398955
4.69,0.11730431618753676,2.1896570773992154,-9.660163999014474,0.2458809664551581,0.18711996024226768,2.210285678397649
4.7,0.2446961422707712,2.2350411107899535,-9.65903961997742,0.09719302500982116,0.24867202115381226,2.132748993212088
4.71,0.2011380657899297,2.188723075635456,-9.682063327089228,0.10531652982156411,0.15288949602363866,2.14713945693148
4.72,0.24894979844403659,2.21028032572745,-9.551228621295405,0.12446310381840141,0.13666854590878943,2.096587378494524
4.73,0.2629086532465836,2.216322470626871,-9.747982804916912,-0.10458783023969317,0.1131001514496819,2.093989053820258
4.74,0.1674475275623672,2.232758239874963,-9.63868349681999,0.15266424655567112,-0.039772716452597084,2.244012494761645
4.75,0.12303374870541023,2.2551983106420654,-9.570388255028082,-0.06967149690702601,0.006976565984445557,1.9696768752245515
4.76,0.27226253198329936,2.224999011574013,-9.621080158107487,0.13485355855058398,0.03516584231757468,2.044999976404507
4.7700000000000005,0.19546911914699486,2.216656132659497,-9.724320341196611,-0.07580105298621687,0.0520702808518089,2.1977527234833625
4.78,0.17705410602358967,2.217327042345141,-9.564490244457021,-0.03299925465310177,-0.07269998106354619,2.088276619299648
4.79,0.24635706344431202,2.1286601030936603,-9.568899423319532,0.19203059141609108,0.010958502464368886,2.155733152599692
4.8,0.26243220097843006,2.1020979888808875,-9.546698640714363,0.18120981355582566,-0.021684897448460028,2.0598231628716674
4.8100000000000005,0.1944089366336251,2.1177190817762694,-9.621514046875326,0.05946289999569154,-0.1927747141864871,1.8913588383376996
4.82,0.13215780216303638,2.239270109642505,-9.627163116288829,0.13206260495680783,0.19658957323389992,1.9427992615376943
4.83,0.21674692147982144,2.1520531753132475,-9.563367425841257,0.03644126843767964,-0.06354532041714914,2.078367603357971
4.84,0.22149914586907446,2.144087618938609,-9.578322474588699,0.16466743024463854,0.06812944104067195,1.7836630019403488
4.8500000000000005,0.24217621697687575,2.221619789183589,-9.554092965830561,0.02915194895558837,0.2063162990161508,1.9150502605523472
4.86,0.22789663424395143,2.07375940899169,-9.635152221744686,0.07197226913556024,0.12330673172305276,1.7597382332999305
4.87,0.18454760619167432,2.1867197078654192,-9.61153123074164,0.0647682236770867,0.09063966674215579,2.0442200660279344
4.88,0.2579664465440933,2.1039772804975967,-9.609871066798307,0.19743849987087414,0.18769045212442004,1.9788497290317046
4.89,0.32757351279215713,2.2098048103297008,-9.612538660255714,0.10705695284628305,0.11992148118918852,2.0510388083995474
4.9,0.10148708170601645,2.1672468670960696,-9.54190945540867,0.2247455219959094,0.04839748085865615,1.8064401352137902
4.91,0.16026915023317254,2.1536555210724013,-9.576018459087996,0.16701949819379197,0.046430178013156076,1.7702392240425433
4.92,0.19282437339770991,2.2068921885685406,-9.610411177611171,0.053401726015466194,0.10445839220434794,1.828517477080029
4.93,0.18627519773174855,2.0633706070305364,-9.599097231160126,-0.022242821454596745,0.01947513231989227,1.8109594195584813
4.94,0.20354619621357758,2.2068954798073874,-9.599235335700856,-0.06418611900245685,0.1374175604875343,1.7209544744662282
4.95,0.2265762508723616,2.2151211813735325,-9.60622242104727,0.13347876575986506,0.11064331667439045,1.725663892008635
4.96,0.1607841128514846,2.1838334361081677,-9.596406097279743,0.07675677597086436,0.09135107332443466,1.6872694336984528
4.97,0.22930711507267018,2.124041454468024,-9.553707410336475,0.20271867425266688,0.043185280266332726,1.6808282120276254
4.98,0.11594654198252441,2.2114660955077876,-9.540732453417045,0.13423544554531175,0.17782827064246803,1.539738643984226
4.99,0.1855193504249669,2.190645460822493,-9.65556313807488,0.0918608168676681,0.10735528536693603,1.6119695767543174
5.0,0.14114283128512886,2.0975959699727156,-9.579991551544675,0.2589287991500593,0.17629287631999996,1.543800725479237
5.01,0.1247561625829238,2.122212237403107,-9.618350142955245,0.07639243770040577,0.2789677130202066,1.3757001655390826
5.0200000000000005,0.11708948387461539,2.074028413314225,-9.579911246287537,0.10950729358700433,0.20077345062193422,1.4521951331972556
5.03,0.1501922643714168,2.1175526817133385,-9.628732847573556,0.21509821649257393,0.08507288381451868,1.3994844570184855
5.04,0.27206863859048847,2.086174180917369,-9.645091011691353,-0.07635671513996375,0.2037079822762231,1.4262410563918109
5.05,0.21317892486675968,2.2023609500287202,-9.560479762773719,0.16028384058711276,-0.04645359662970025,1.4580556347981595
5.0600000000000005,0.248102155672303,2.081850838704549,-9.595060192627225,0.12591326011199128,0.12393897531594654,1.3077080184448022
5.07,0.1921482366161868,2.093076219777465,-9.637035591742837,0.16570010260078452,0.08912995646808572,1.5060336403373618
5.08,0.25114365544468775,2.056037537847772,-9.616747767915946,-0.04317091889861885,0.014934330099287033,1.359355393512613
5.09,0.3122930098140918,2.104116283539421,-9.68988771011948,-0.08313546913153957,0.1398558255908645,1.3048778412906072
5.1000000000000005,0.16979980469920783,2.012468818721218,-9.569719323419445,0.25513671877681343,0.1286178613871647,1.2672826248254885
5.11,0.29897331673409866,2.0377756233359055,-9.554688480448892,0.12711346092252618,0.22811459597185646,1.2307236931985033
5.12,0.1870020830755543,2.0867119562907392,-9.552771848044253,0.030348635775085855,0.19926231043240078,1.3949685046579252
5.13,0.26926342311901813,2.0963473901956453,-9.559266182338142,0.05695500239918108,0.13738415825311165,1.129549394975752
5.14,0.22438922597497443,2.088822064254043,-9.53821817108853,0.1774330377185312,0.30436161797836225,1.072097461024245
5.15,0.11338252666118341,2.0094705649133155,-9.615832927733832,0.07712879673456058,0.1594022107865553,1.1603483242316663
5.16,0.21471140954580437,1.9928364847852085,-9.61319313330138,0.09952103604351539,0.2940334486607492,1.1320483499190803
5.17,0.1489075069209765,2.022076708456992,-9.574946978015436,-0.020636402335421605,0.11058561683028179,1.1259440627020714
5.18,0.19603496541893098,1.9758533373477591,-9.620754318051759,0.21337116636066836,0.1513461397324782,0.9325041398964963
5.19,0.19093229146319654,1.9886646158940864,-9.599405350620778,0.055468566971357325,0.12203307485994074,1.0766977549445098
5.2,0.1997295817465242,1.960859200182619,-9.592634245571377,0.0013702735635552077,0.0902225835982004,0.9595523141192887
5.21,0.23758245588655447,1.8869981078802511,-9.6255855376507,0.12416732018124912,-0.06308027669944913,0.8460570253944557
5.22,0.18543271099054215,1.9567502331577584,-9.581881865297385,-0.04311439322194871,0.11258984447460968,0.8869648117451366
5.23,0.06556148506528511,1.9002881653732302,-9.524558349315397,0.0246304615233659,0.02194076799209052,1.0838230483110216
5.24,0.2322661773622814,1.8349381716385655,-9.64833481873896,0.07620537034717001,0.051195503364990735,0.9923341975473972
5.25,0.1853896980192033,1.8748646463677077,-9.596181985405362,0.015055494573526146,0.08310895935528478,0.8375700979055914
5.26,0.1678907058192634,1.992834100836316,-9.589577148685647,0.23915002618015663,0.27151893053830845,0.974776309459522
5.2700000000000005,0.18330615521837887,1.9630858077368893,-9.65287461044246,0.22849857226059964,0.23686276413570623,0.8940436670159052
5.28,0.305964740800076,1.8853574535389925,-9.636028969942226,-0.16682310531097774,0.025139056972249565,0.8403212731681999
5.29,0.20793250543170108,1.8986109447049515,-9.568906394133695,0.10491077624064692,0.09452951981947322,0.864914225184766
5.3,0.17414492217586475,1.9356995282112648,-9.635872825539955,0.07840619765617765,0.04285604687141109,0.8285834947871255
5.3100000000000005,0.21332117756682203,1.8761968064591286,-9.588222501358526,-0.00266205450356527,0.03419006218463526,0.8551626178697835
5.32,0.18440991200472606,1.8859554698678656,-9.514485154714546,0.13002758562757671,-0.10508793332574645,0.6828879526834134
5.33,0.3297668720711745,1.8489442175551714,-9.574497848648745,0.20269241800885485,-0.015170653569583137,0.91604237410999
5.34,0.15467684883173996,1.875453846821843,-9.664196550877344,0.045289603677722584,0.2270621911505154,1.0192528279579445
5.3500000000000005,0.27686694859930483,1.818846848617141,-9.640831087990803,0.09174783119752042,0.05650188508790578,0.7831409958896132
5.36,0.29473745713752275,1.854260184875071,-9.595132322502934,0.06675549961047922,0.05397448681466707,0.6733066564124863
5.37,0.14738910371534705,1.7565222330382162,-9.55635903006056,0.06690805358378504,0.2091611700938751,0.6936122513225573
5.38,0.13529670457722534,1.751695099221792,-9.633563380116899,0.15670704708464106,0.04609031516985024,0.7758613946858078
5.39,0.23127422071632522,1.6766293966925716,-9.614509190487224,0.22751275244015043,0.11748755519598617,0.5822587072118711
5.4,0.2510163994801835,1.8534915413341893,-9.448319057540198,0.023452932177267766,-0.0344074322022368,0.5829711716537505
5.41,0.23100763332397858,1.6690800362654938,-9.654660363056925,0.011076569228093316,0.004853951260892234,0.7186276620866731
5.42,0.25778506770153264,1.7229262954176403,-9.567872311244892,0.030935218855623586,-0.04798948135348191,0.6595396043787202
5.43,0.23010122599419497,1.610563443976675,-9.5508836103544,0.11126122673631433,0.2340085137986998,0.66013183624135
5.44,0.13390013986193977,1.6886789660477077,-9.696459008933777,0.05128394603259125,0.359027030180772,0.5839328625875431
5.45,0.18318701966968617,1.6745320502604477,-9.698407242945684,0.13346047474944328,0.26792280987804995,0.8904039463718197
5.46,0.19500272215974743,1.6597220380713826,-9.672727828496113,0.0531657527946813,0.08962643031059062,0.7196232906370561
5.47,0.15818426851758202,1.6785504271607947,-9.650846588974389,0.04115031551192971,0.29231727739178426,0.742642556816623
5.48,0.29260508890385484,1.633485613377515,-9.552847625952325,0.12586551174551858,0.15474458621751402,0.38479594327403077
5.49,0.23336341678474645,1.6656224579220684,-9.499498966877953,0.11097816082522495,0.07086896584266417,0.44207962189896
5.5,0.15684625153734777,1.5962817056744116,-9.552873244756322,0.24021805067484087,0.2048089595578392,0.5064309717234551
5.51,0.2158632025182216,1.6453552810455079,-9.572201220654161,0.20981010428115318,0.3267884131789036,0.5578773907877803
5.5200000000000005,0.1822344621729741,1.5172286162889708,-9.703123540517645,0.15279496658840241,-0.004883395834116233,0.5929845106243847
5.53,0.16598831321582433,1.4658309250276746,-9.694065399872045,0.11247833168085457,0.16926615644171714,0.47934937539813505
5.54,0.26855620907854877,1.5928699634904449,-9.59861037665097,-0.08745592603570049,0.1877826819729927,0.5577779849000878
5.55,0.21346290505576312,1.5159762976348863,-9.57686743202844,0.28197927681666585,-0.13381066471869563,0.6024983806402401
5.5600000000000005,0.2464658558201508,1.497382462353103,-9.58298071619095,0.11589606733416388,0.007760171306500779,0.47087671905156936
5.57,0.27855678892833624,1.4483062603685672,-9.506454868447534,0.18125518011150776,0.19930056387278783,0.6386365403044931
5.58,0.25513586641201413,1.3861784115358853,-9.648786994861803,0.12217839628544308,0.04930168045298675,0.5422659881376147
5.59,0.1788070912798918,1.446362036307979,-9.588540065943057,-0.1505557797776205,0.18551703515415074,0.48592836019209884
5.6000000000000005,0.15609746171425082,1.500711607761603,-9.618832510215183,0.10306206861472647,-0.019303935396658756,0.49152572188253985
5.61,0.2484603208078379,1.3853967296408733,-9.492690815611203,0.030366380668528745,-0.005960358652460404,0.42772323535337964
5.62,0.3132865501692256,1.32871409862492,-9.651865342702754,0.09613003461386044,0.08650401125151785,0.28866387600589405
5.63,0.130956784244153,1.3734840582207188,-9.711419186527863,0.22664318122940863,0.0566235326588474,0.40279245153478804
5.64,0.22399165537039378,1.3948040945057196,-9.640241502275593,0.047088611698590105,0.07500635091745686,0.4769594349573385
5.65,0.1262405282313696,1.4255093682598048,-9.572717960032355,0.13880247858754563,0.09709741741964063,0.3685720970537395
5.66,0.22140034978860734,1.3404877505862507,-9.616207721233867,0.10112547763194582,0.12116138100468667,0.24161537570962804
5.67,0.17791372614112544,1.363061115163328,-9.597700910436522,0.13430815380284394,-0.013403889532399307,0.21691135011675394
5.68,0.2197838291801537,1.2891449797422943,-9.670056745524477,-0.10715698916512725,0.09055610460447705,0.539434714643015
5.69,0.2770572390785892,1.3952564724145293,-9.496026814735645,0.16390754703902063,0.17798504529180176,0.30949179227673307
5.7,0.28941824226206814,1.3919240850014292,-9.515637493233577,-0.008818380059946646,-0.0034654087991858595,0.48584588574919374
5.71,0.23116205232309256,1.198820462364864,-9.640204721973305,0.011060691779769802,-0.07874735164173871,0.4016183018348106
5.72,0.19832572462633966,1.2716232510514311,-9.599534676542214,0.00799901276709905,0.05559007368976805,0.3437277333405043
5.73,0.15270010291698727,1.3033270911478663,-9.57481553652528,-0.04046789232129891,0.005107064681400805,0.4803482791636705
5.74,0.23853940393226708,1.2861067230276515,-9.650030841688013,0.27758064787113934,0.18250967578708435,0.4725496835405807
5.75,0.14409383803862696,1.284906733853063,-9.655456111896163,0.2087254294246106,-0.009836061377558575,0.5026635688016577
5.76,0.14462342760897437,1.1892992889797132,-9.543220508578075,0.12135694634528937,0.06950994214753453,0.4790294392579668
5.7700000000000005,0.20483813891383884,1.1955012664496318,-9.57228656072534,0.1464743543002497,-0.013817006959958092,0.3723192511771525
5.78,0.12628248179153134,1.1668908422739979,-9.585095128620393,0.0652737760468752,0.05996485006084432,0.40209826762627765
5.79,0.17431861669735665,1.141629599305717,-9.531971690776208,0.1238713662557297,0.11021985532174812,0.26334471663621284
5.8,0.1923562261981613,1.0381433074922766,-9.661924492184808,0.0015227779568824928,0.0811490412742538,0.38268499362847475
5.8100000000000005,0.2189519851411772,1.1721231971231885,-9.582362460015831,0.07394057221275846,0.139707881415224,0.35014510908952867
5.82,0.2552923575787521,1.0845786048511334,-9.67845699399249,0.08072850411693062,0.19886980820861272,0.3916888793073007
5.83,0.18979136335400545,1.0865558146700636,-9.554027964169563,0.1454342244941105,0.14080510790245232,0.2862401282904802
5.84,0.20555365537016973,1.0501980913411244,-9.683630470163509,0.1435740151288516,0.2926877857196585,0.3385611306849804
5.8500000000000005,0.16313831292661823,1.0033852562569685,-9.58378314988461,0.1753663021749947,-0.0038750584486733075,0.40521201305353205
5.86,0.1560801288941915,1.0513250440358881,-9.587421088359719,-0.06453315896667733,0.10147306426926374,0.2458125155003904
5.87,0.11108268796144193,1.0584177768429013,-9.59628116536668,0.1626670128302231,-0.11161042720639136,0.16410501101082758
5.88,0.2583500244665472,0.9970943355226181,-9.645344532854256,-0.011288605928477108,0.22181331592240922,0.24620294713873228
5.89,0.17188089941896134,1.018224863181484,-9.624918925953008,-0.07571321507209805,0.052838372162883215,0.3464800837344244
5.9,0.25027042597464205,0.9695101007567548,-9.559065091646634,0.11815061985814149,0.11501037631682845,0.2605880527203933
5.91,0.24133435588065902,0.9740157320481038,-9.613884551495886,-0.03777759821603424,-0.11636331730082042,0.14304576487013138
5.92,0.22617511818318922,0.7684527840266482,-9.542054906033657,-0.023306610066479022,0.24298354929948612,0.28128070004814726
5.93,0.3104249333151194,0.9491063336142054,-9.538044858869414,0.22456884857400428,0.18044473124457558,0.1299495871597147
5.94,0.12957810478745374,0.8979004906964156,-9.538377793442288,0.13994647589212614,0.19942249481656996,0.2899693620792013
5.95,0.26931991468969757,0.7893173814008634,-9.589538194273784,0.2734333273357037,0.129111550972207,0.23607233125674207
5.96,0.22677399659825734,0.879325185924049,-9.55543764918836,0.2178342969488384,0.09576858018694415,0.19791605702467746
5.97,0.13627435959069456,0.8220484317605365,-9.697756670429927,-0.00407704195552798,0.1809765447892837,0.1912869632894845
5.98,0.2240400379351004,0.8465857047175387,-9.637723840841312,0.2111847427991443,-0.047345860110558885,0.19717587428940964
5.99,0.21570946650198136,0.8540257874575814,-9.639607971109209,0.2249664533343957,0.18731269661681174,0.2844784009110142
6.0,0.24859175960278085,0.8028290073444575,-9.54465535882544,0.018038788822786075,0.11018681516503566,0.1544982611531745
6.01,0.20017582765569658,0.784134446963568,-9.704897914456177,0.011609770619033427,-0.05380182750464721,0.3787610186493635
6.0200000000000005,0.2597478901773765,0.8062001879380329,-9.565320679302678,0.07794682015803005,-0.01581756149847377,0.2580255120247282
6.03,0.27596470108404286,0.6735248627675678,-9.629769758637627,0.1477027556799564,0.089811063137153,0.15381882553213216
6.04,0.21199492053416966,0.7535416278740013,-9.675372697793694,0.19387844756606765,0.2644151790920717,0.11406547232945181
6.05,0.2672337945815495,0.6665069482497302,-9.631450355305798,0.18110233321978914,0.07525279565986118,0.22466242015062443
6.0600000000000005,0.3017252571978008,0.7009621304724625,-9.607372289320223,0.060819479549520605,0.12363404713947784,0.33645286632473353
6.07,0.157580291689467,0.6267362448554015,-9.637478351934188,-0.007125737833496723,0.03611464232866883,0.18944590572092215
6.08,0.15204450163017325,0.6045957861892958,-9.564068809786697,0.1559212650297635,0.06814738883130422,0.12535404245459894
6.09,0.26786254912321483,0.5673827350864884,-9.662327905033957,0.17213148550571333,0.06194836610913911,0.07592046016940653
6.1000000000000005,0.21236492281186453,0.624180704483053,-9.559596552338446,-0.017773046007543952,0.11369213299238114,0.16022330699672316
6.11,0.2214152524932205,0.5685590853891661,-9.595580080588528,0.04947225472192495,0.026703546681027965,0.32984220529501473
6.12,0.19559516087717832,0.5659187508940141,-9.6607669895747,0.05531383906715559,-0.039831762886335775,0.36253554228411955
6.13,0.2264803892386915,0.5389421027772049,-9.587418577877663,-0.08876142915091434,0.18171595537637072,0.2630461829898249
6.140000000000001,0.15626128197537487,0.5292233309795817,-9.641025064440218,0.10925129196849244,0.06969708270323048,0.2285108936856092
6.15,0.13012465530587264,0.4082151582749807,-9.560276321130237,0.14964990556895919,0.22550441908576785,0.17007569774146625
6.16,0.17294646175042735,0.4131905324942987,-9.623947538210675,0.09338266803598376,0.16295696708056678,0.2060752505497532
6.17,0.20474411425547695,0.4466349531209056,-9.634490013229083,0.06166306087576917,0.013896297794074086,0.40998702255709274
6.18,0.1974277655845304,0.3596622378431578,-9.630429177253342,0.187397298565457,0.0906908110391255,0.14203444042944852
6.19,0.2669735814993818,0.42389868561042043,-9.58123141055875,0.09192058158829801,-0.10932920956932085,0.08035562061981391
6.2,0.12351970195408635,0.36824353709360236,-9.615452022981142,0.06552300142733095,0.14742872893649678,0.3151201924318923
6.21,0.15049823514525246,0.40546959228349494,-9.626880575379518,0.031152944978766403,0.19570693524718313,0.232653281209566
6.22,0.21914480895469923,0.3453685483195443,-9.568051643065033,0.08052915794449383,0.07515814690897173,0.15079962571124914
6.23,0.199786444151261,0.31777348035709024,-9.633740242980535,0.06303347123563297,0.07801588047801866,0.12196266254641427
6.24,0.16524244682560113,0.2231971944626034,-9.583612116957605,0.28362097809579345,0.09351195814332225,0.30984783137239025
6.25,0.25949798038267446,0.35464930864856115,-9.622234376878541,0.21060769528140633,-0.019279875764768237,0.09673444522622819
6.26,0.2682704056893205,0.34314265491625434,-9.624956800632582,0.045406102606704704,0.05842419116445089,0.14033213205622092
6.2700000000000005,0.20361033832797268,0.270618189458657,-9.634760210656923,0.22488660865481708,0.026637851363153206,0.13443850905500673
6.28,0.19443010624441665,0.23822684569574987,-9.550808626891353,0.08794814432676025,0.0376180200355851,0.08322185781118344
6.29,0.10802052715499454,0.20510286539396994,-9.631929730008267,-0.013261465748013318,-0.11082786694647681,0.24385828141353272
6.3,0.19392207014064086,0.16338138111063716,-9.546970106809026,0.008982283607724767,-0.06632414228661246,0.12949140060886605
6.3100000000000005,0.1375103787956915,0.2070558616731436,-9.56823504540827,0.3346904721226901,0.08101347455730602,0.1925033716344225
6.32,0.24741728609790187,0.165777548514923,-9.679530241644622,0.061660211335128084,0.12581523000662762,-0.0042155840223814245
6.33,0.22551407748277588,0.16501317624440937,-9.54324642277076,0.25002437306340874,0.08897931775184381,0.07145769487953339
6.34,0.18544258823523263,0.09266078542763193,-9.527352213466344,0.02019894607623403,0.29824999515918926,-0.14339337355475226
6.3500000000000005,0.17190858676323242,0.11155972301843137,-9.58609187457288,0.14759402880268838,0.1438606351986462,0.051510398637683814
6.36,0.0631953278784256,0.09504092090325081,-9.56365522039414,0.11894739098170404,-0.06593365244548194,0.07315723354631448
6.37,0.20122883616604317,-0.05374136358650222,-9.697394184692184,0.07347837179948614,0.11548417454867518,-0.08587611324284414
6.38,0.22866304989457364,-0.09499356103628126,-9.617984075514794,0.006050442235941977,0.10650509097700041,0.0852193594521787
6.390000000000001,0.23246490497067915,-0.040250340006738855,-9.662803765762144,0.026753905376345755,0.09435490024725501,0.00802958529476433
6.4,0.2594690855116307,-0.026881727344161416,-9.626739834978862,0.04626483754934044,0.13573664303195493,0.15913329445016705
6.41,0.2115427725121194,-0.05261983365602424,-9.60567607624085,0.04962032740370618,0.05098695024458272,0.027856368816596616
6.42,0.23003096147682064,0.012893327729834314,-9.526867389612155,0.039279285172025474,0.22031948954950525,-0.0021273057427695363
6.43,0.27797101523744283,-0.07584770371700716,-9.643389934880888,0.2939560844395192,0.18621764937187638,0.049238619627566135
6.44,0.28734345250146953,-0.11788012627700284,-9.652250623318274,0.21819295173015,0.03435964587739013,0.0016248180979170634
6.45,0.24900194668180387,-0.07008833170823431,-9.573377370401841,0.028925726445317698,-0.13785725526820505,0.06536352481618576
6.46,0.15597033413708555,-0.14675739135145427,-9.658668979787405,-0.01647298975163966,0.3082345971367249,0.013301059110032432
6.47,0.19583784606654261,-0.16663531080289984,-9.623081739440535,0.07229850040611017,0.028014095447726456,0.08787956079226197
6.48,0.16390999894904623,-0.12336625937428042,-9.603315459358933,0.2711507604140023,0.1631673774411903,0.06259605995141049
6.49,0.21707196129858958,-0.2862356071371487,-9.4881692188,-0.024497808553673492,0.20481780660009538,0.13031037828857872
6.5,0.25391872148036004,-0.15739066621962822,-9.549520056521096,0.11215586201852083,0.17907716861626088,0.1820031365864725
6.51,0.21672142451001933,-0.2862815845225469,-9.642476099342142,0.09074088312110865,0.3021761510597607,-0.06335633765639684
6.5200000000000005,0.21344785674644792,-0.2646146564034847,-9.576763451710915,0.19671949531649824,0.08514153363472937,0.06788770757566219
6.53,0.26839856902284376,-0.28079188387994597,-9.595730684388473,0.04007271399908494,-0.002776668817385669,0.038356930503954986
6.54,0.26174275607544084,-0.25956167419526627,-9.643666663849517,0.03169106058590636,0.21518853490651543,0.04391915387870968
6.55,0.09711224440983812,-0.23690549057949578,-9.544851565001116,-0.12954147228243226,0.1452628589446328,-0.14439786863612442
6.5600000000000005,0.2589037888923119,-0.3423045279128328,-9.545613496993989,-0.1812594366036727,0.18909875015078947,-0.08362345139502905
6.57,0.18895525546612282,-0.3679066578467844,-9.548987414719495,0.007314599237848093,0.14945910936724768,-0.19434777550017188
6.58,0.24368172479403014,-0.3971311416130086,-9.534661297563817,-0.0817478106446225,0.06542997148339344,-0.03647096918051751
6.59,0.20097886435146692,-0.3995432608171287,-9.560632645805665,0.09491191201344654,0.14269179540996618,-0.03945916207198355
6.6000000000000005,0.24178437077863166,-0.383261117613999,-9.621763122578134,0.1197360388578845,0.06450218585424189,-0.14288975682080704
6.61,0.19352088932481973,-0.5253863223327662,-9.656585218216588,0.058387863685567185,0.07062957361564914,-0.12133615767936629
6.62,0.16503278719985456,-0.4201802632204256,-9.591987921126265,0.1897537353780706,0.14427533746653842,-0.10876073959511323
6.63,0.23397450908880377,-0.5300183144124904,-9.565688584372692,0.18562075562488678,-0.005887262824128811,-0.12384598826655727
6.640000000000001,0.22066027529621177,-0.5755793936580607,-9.5695745901459,0.01073397729565867,0.0012599212482582722,-0.36724383443746345
6.65,0.2740427304212848,-0.49378803019870326,-9.613518601960356,0.2191574377958868,-0.021916326124428814,-0.17709108780435875
6.66,0.15609126680553942,-0.48424976867135766,-9.690852673593437,0.26561511938883486,4.361426843946248e-05,-0.016377265536711816
6.67,0.23110619051674014,-0.6095451095744446,-9.632882446631502,0.17135498453151207,-0.021666779235384917,0.01892270501013084
6.68,0.18054840063609037,-0.5933080572920373,-9.680159935984836,0.0762547880365007,-0.12857594339315837,-0.007654830475833541
6.69,0.24636088884444993,-0.6334876072286488,-9.541236220089377,0.10502046176176007,0.16453198558267768,-0.16854279212299847
6.7,0.2017540048400578,-0.6999392217325764,-9.54198757501632,0.0607846911798972,0.06535255683545532,-0.14312660677593841
6.71,0.25635026704514985,-0.5442005992927448,-9.59136155111481,-0.03803541576655731,-0.026117696771708027,0.06986461057897925
6.72,0.10152431972600501,-0.6652608961202022,-9.562023088417781,-0.07899844695777536,0.03952357102453289,-0.20184031249915266
6.73,0.2705048321013365,-0.5223296987920358,-9.552838270943521,0.009158678742746146,0.2670461341541792,-0.34410640138968784
6.74,0.13533325504354982,-0.7711968556080859,-9.683179012025716,0.05270060462858886,0.23811996590703333,-0.13644251075364636
6.75,0.24697014006612011,-0.5930048867346682,-9.625237777491858,-0.05912674829199774,0.3998210682721077,-0.10499110226971767
6.76,0.2541306317413975,-0.8193681761437592,-9.604248017535195,0.18062896767576592,0.2764925233925285,0.015485280633832033
6.7700000000000005,0.1630300697694072,-0.7339455766816729,-9.506498607435564,0.15801363626796228,-0.013286001971796121,-0.28760587261333026
6.78,0.21072586456405956,-0.7259277582211332,-9.55511405893851,0.04650685225941356,0.15770495704463425,-0.3185157682302363
6.79,0.23104825087340436,-0.7353745209185669,-9.598945760388377,-0.007537093822462038,0.004193548872770819,-0.03206742752967209
6.8,0.2661480055593574,-0.7803487646714089,-9.571764728501291,0.15329717477634994,-0.10020299019916817,-0.24846135345459044
6.8100000000000005,0.06983909512004285,-0.8603579667373429,-9.504149610219539,0.02138175739384883,0.2967561494583606,-0.038363065342980035
6.82,0.14463090427485215,-0.808154223820073,-9.613573115330864,0.16837152988911586,-0.011739096081510317,-6.868761483469488e-05
6.83,0.20097588298262817,-0.806159432551331,-9.631894899178635,0.10493813979361387,-0.04742607175907626,-0.20391122970303108
6.84,0.2964126412985971,-0.7670533239884116,-9.485058856256767,0.09893134491298101,0.0687322436858204,-0.22724667293471365
6.8500000000000005,0.17717739933818116,-0.8702031039651392,-9.604504897801439,0.09448695777027069,0.2954117451364695,-0.21077364071589896
6.86,0.11488702546334285,-0.847239849009485,-9.6538920373368,0.17027609856334594,0.09231515000888697,-0.08785721106987124
6.87,0.23804830718113523,-0.9726395369673229,-9.64460470598783,0.15296411747501681,0.11765124121814521,-0.25446710042099185
6.88,0.21790148697563305,-1.0231386152239998,-9.639933498904146,-0.02032623466956543,0.25955945590400453,-0.17506222513801137
6.890000000000001,0.22701256844294437,-0.9364368288727023,-9.735262036091173,0.1393965644538484,-0.013997620339030875,-0.18354068409082805
6.9,0.1823365096513555,-0.987345820450473,-9.617270575476375,0.08679907783184629,0.2646713628745641,-0.23848296785055198
6.91,0.1861618938228861,-0.9948049074986758,-9.537361130319132,0.07256474501678652,-0.1269561792969034,-0.2505376700324454
6.92,0.20843829121707644,-0.9371373954455737,-9.584406499526075,-0.07455997333660677,0.18150269907175653,-0.06524447837749855
6.93,0.23104218170504215,-1.0076023006312844,-9.541494842793266,0.09638694483550984,0.09994936540566403,-0.32105986328096947
6.94,0.12076785213264166,-1.0752115272129312,-9.522534866160857,0.032295164377969074,0.02786008781785297,-0.3503716238987078
6.95,0.18745046934576265,-1.1069533728171577,-9.650219568921672,0.11239110807131475,0.11590869852157132,-0.45048677445925855
6.96,0.28727444771859056,-0.9490254402623508,-9.62495650529249,0.17637989090694772,0.10812455288851915,-0.1571375476062654
6.97,0.24578482776915886,-1.0840225419861502,-9.651644262095953,0.19443210155027368,0.029398237099968402,-0.2812779527951387
6.98,0.18750766675332528,-1.060587167044566,-9.609203754285003,0.09952244598228252,0.05475127051371335,-0.2725416825714705
6.99,0.23641059743675225,-1.1433825200538377,-9.658561766526057,0.06601608367557726,0.12290396882756979,-0.14487424130810347
7.0,0.16598654382136172,-1.1169435808541015,-9.527040387619605,0.2355869248217025,0.16224737525853128,-0.37210372294853933
7.01,0.18308360588236677,-1.094509545432837,-9.606345562795031,0.13624799741373955,-0.10434257797943941,-0.32398756914554916
7.0200000000000005,0.22569346351750516,-1.189122305909923,-9.61731805777139,0.08499768293070593,0.13346563850929963,-0.48241274072949436
7.03,0.1758903981871044,-1.205475351099375,-9.616455230638186,0.19584278336139915,-0.14364246208343687,-0.1733318565036441
7.04,0.1427442010507634,-1.1105988740910422,-9.65370297578364,0.00447045831780471,-0.004024104111098686,-0.2209552746120169
7.05,0.23846266264870924,-1.1840724928143849,-9.625340841899359,0.11025092464704156,0.06880100552822886,-0.40375680341759435
7.0600000000000005,0.2141148320830711,-1.223392680232294,-9.56936747558651,0.060814122244121055,0.11669296728539973,-0.3979673834624605
7.07,0.2203377187078279,-1.163683779244074,-9.650460801273855,-0.053395125100563406,0.08451611098771991,-0.4299736243627442
7.08,0.2844123328595307,-1.1470053993429568,-9.643869187318575,0.15337714632956806,-0.04344932297960491,-0.33309220399568884
7.09,0.23693664536540188,-1.2161917943850373,-9.599694104455713,0.10790551584975755,0.2380367694496512,-0.4818846697484044
7.1000000000000005,0.26334373576659076,-1.2593129788316928,-9.589978852598595,0.2985544626643848,0.11145954480802919,-0.3768515494588779
7.11,0.20644053631380166,-1.2835846397387927,-9.679972955399888,0.14294202380025128,0.1387830099144236,-0.5226745571695383
7.12,0.24446643238584465,-1.3118796987016537,-9.581736175842684,0.10545213827663391,0.16533610903554108,-0.3585912910867981
7.13,0.18842166747006098,-1.3811795830579532,-9.49771048117899,0.05506952889557528,0.033776215966674836,-0.5218885383675448
7.140000000000001,0.18849222824343734,-1.288195974202084,-9.630082056791178,0.12519462134687628,0.08808394957876087,-0.4678692861483368
7.15,0.21281046763728828,-1.285402774447139,-9.602367422546209,0.05617751198390651,0.12915042976645127,-0.5116767832991809
7.16,0.2612610667824403,-1.3306111137507832,-9.649548482104278,0.006734041003705657,0.14478373471562575,-0.5009750535847584
7.17,0.24421968086551227,-1.3605741561329003,-9.651358326277615,-0.12797481479314077,0.017352198632250265,-0.2780893439978933
7.18,0.3001586941423098,-1.3780346648269857,-9.558120408217862,0.02412774869063601,0.09304292524121324,-0.5862603921323868
7.19,0.19597251605999605,-1.4478061003336407,-9.613565565665352,0.01769022900764787,0.23087665879096456,-0.6140912018505155
7.2,0.18867825270342256,-1.4035017705163622,-9.60829167743125,0.10119131008998662,0.09295403603089256,-0.5340198836505836
7.21,0.15119899075926566,-1.3425297469378672,-9.607823702642435,0.20616644213429836,-0.014711044452060909,-0.4246016599352598
7.22,0.24386165303953336,-1.4135984727936601,-9.586017118220179,0.00740055693156752,0.19369725558139037,-0.5473926411553582
7.23,0.14133742517072126,-1.4393287517045148,-9.637299284254569,0.2859866616199551,0.034845468928288645,-0.6084633218617661
7.24,0.18191234029569506,-1.419898263266756,-9.691839073018436,0.21235467603777586,-0.22279277532547506,-0.5465697861248812
7.25,0.1916489859377545,-1.445133344891352,-9.612316097732974,0.2096344635185684,0.18684072075407135,-0.6093510763987574
7.26,0.20104521003709772,-1.4678177622874757,-9.708507321334142,0.24629287788058643,0.28462159169401646,-0.6624880007455816
7.2700000000000005,0.1941435316645731,-1.4312036008321791,-9.576068533850417,-0.11414178028000191,-0.037913373604670814,-0.5747694207756875
7.28,0.17853605602825456,-1.4754605796930256,-9.642866314707218,-0.042118294578352256,0.07551310034192141,-0.4738082815307495
7.29,0.24835103132099084,-1.4727979192931901,-9.630272906271461,0.1864477373778313,0.058788379162567954,-0.7531021747166919
7.3,0.22915491890437667,-1.5258826070025844,-9.617198877492145,0.11861831800839727,0.10350569758764717,-0.8149315796606517
7.3100000000000005,0.2199629894640093,-1.6086665838267156,-9.662467961609662,0.2495937548993381,0.05938164618671318,-0.8032797752048396
7.32,0.2544953422428202,-1.5144589595811984,-9.590576129755899,0.14159527683917922,0.05234507045711032,-0.7127677243341637
7.33,0.18295440626405407,-1.4786459123566604,-9.525821543394885,0.09392873413192752,0.10011881555596214,-0.6849790554030988
7.34,0.20085515082489658,-1.6094140901578453,-9.568246695297756,0.2706513991949854,0.08836251374813077,-0.903986475416685
7.3500000000000005,0.2528114447490566,-1.5206828068264557,-9.675172561235913,0.16028133801894176,0.2323578461868037,-0.8493880125858084
7.36,0.2345266810871901,-1.6269787046301325,-9.700973415674243,0.13522570924721547,0.08392261511130945,-0.8178660837994495
7.37,0.18581601013156576,-1.5485721569158397,-9.68099923730521,-0.01541504501448232,-0.0034407725761934904,-0.7113399315624327
7.38,0.18829319204657757,-1.6023597515947805,-9.731139749582423,0.04382161425713456,0.16420219326315,-0.9225265167835627
7.390000000000001,0.16224760470905575,-1.660773026220476,-9.594527078091335,0.0771370052569712,-0.066458948870148,-0.9285308047338644
7.4,0.10216777507592821,-1.563688959999859,-9.60268571072606,0.024056483470929146,0.32126848171648176,-0.9460057401046612
7.41,0.2267819735644221,-1.6052985578394914,-9.695161356086176,-0.007348787133193355,0.11180370848252434,-1.0069129200602276
7.42,0.190965890857977,-1.7014953679965386,-9.65874391570423,-0.05034947297199063,-0.04843314383060851,-0.9022157015842603
7.43,0.20504932399600134,-1.5855732358407952,-9.633633249718395,0.14191662966690258,0.11694963051602221,-1.1562434124664627
7.44,0.1819077788235462,-1.7096677070571322,-9.651094687333627,0.09414408368482474,0.20209754504855032,-0.9917337199517481
7.45,0.1340139036168711,-1.6950189065867296,-9.598137343046742,0.004349788024654938,0.20783800544578512,-1.015589040457355
7.46,0.25930850023043267,-1.6396374977717918,-9.55614830850882,0.3447556903791714,0.03943408513136457,-1.2654374608817074
7.47,0.27175186240232185,-1.6059552149340512,-9.650721309367723,0.08527517924929234,0.13209729453971442,-1.1853984730090352
7.48,0.3566631587857682,-1.6675472529919877,-9.489133275395618,0.20347933686258227,0.21200553600373898,-1.0527003003468998
7.49,0.17537822473347225,-1.8059545010123277,-9.622289592513622,0.2089341697404634,-0.038399255299884305,-1.3108485796874667
7.5,0.11622157032631109,-1.6800974850314585,-9.694560295873272,0.061639682427787154,0.09687916081998954,-1.1208024229073152
7.51,0.20043060171353125,-1.7958044268130222,-9.589331216092809,0.04408510838745593,0.08535493006607757,-1.0512174421750982
7.5200000000000005,0.19008631645608534,-1.7535303164439422,-9.648078597722373,0.11428232986199699,0.027477166880159484,-1.223043402827029
7.53,0.23807160156609541,-1.6367172728536732,-9.542705641799346,0.023475967104252676,0.12506374401740028,-1.2231939129088685
7.54,0.14382723784101803,-1.7025099970304678,-9.675994701496721,0.20578662953170157,0.14876226079719593,-1.2771612978804754
7.55,0.16934953596476837,-1.760315521346192,-9.663385678345438,-0.008355092345151569,0.036945462598016246,-1.1920606435570185
7.5600000000000005,0.16146561889233554,-1.7734582320113443,-9.698295666384269,-0.03435773330093608,0.17577279611770952,-1.2760591968376678
7.57,0.16648850972204118,-1.7405692817204377,-9.713602093434023,-0.017893225152234765,-0.047245498925460094,-1.3294957655570327
7.58,0.24441105536641083,-1.6942381779656606,-9.664387953599299,-0.053292424294890645,0.08381146064427263,-1.4311842017320096
7.59,0.170319402135316,-1.7504911729085626,-9.593173382715504,-0.012963778743473181,0.24259369840880368,-1.3597821648092014
7.6000000000000005,0.2766327242780886,-1.8149220739947254,-9.611882021900112,0.14731993550949807,0.20290462023802416,-1.5875103834476292
7.61,0.25834523379107255,-1.7882856928244903,-9.670192689183354,0.0886584366111455,0.24848463849775201,-1.5344266673108085
7.62,0.20072138324162533,-1.8118250908368012,-9.6384062622573,0.02215210957848089,0.005459211070451261,-1.2857431764331746
7.63,0.20165396638216956,-1.6770540299839582,-9.576661471827965,-0.04333383973808885,0.06507254302670429,-1.577112599698733
7.640000000000001,0.1741420318475264,-1.882163216509028,-9.527188035760568,0.22171990674648157,0.025052934580858152,-1.472001779574734
7.65,0.13649642976785858,-1.7370041877269882,-9.589531939149152,0.28077562168323833,0.11827044473426951,-1.5720758648869217
7.66,0.1887809109711903,-1.7500196225639497,-9.58311888180522,0.08430685607569435,0.3495990908648151,-1.453140923259331
7.67,0.13881819192510775,-1.7171202443549949,-9.695795378600524,-0.01613550637333179,0.05073152999415326,-1.5866765129179095
7.68,0.2154354973160831,-1.87180515613851,-9.624778035781175,-0.049307385760619576,0.19092680903862527,-1.724284132528359
7.69,0.16539145707022673,-1.7514552550689164,-9.633898681039557,0.1358286451964667,0.08429620711595734,-1.7397080891843164
7.7,0.2806820521994309,-1.772426435658973,-9.60430482735213,0.09256386371172155,-0.061312934717080825,-1.744249679489584
7.71,0.2508942191284352,-1.772565791969498,-9.630217378281708,0.015917932823675165,0.16929736424230796,-1.7079536956659132
7.72,0.23140567605804857,-1.7948374594622603,-9.581282826144735,0.03542810394771005,0.05846538011117505,-1.8765160129135017
7.73,0.2114654255947311,-1.7788493158870469,-9.666518341111374,0.11531854365051086,0.09315058732341056,-1.6639062274787213
7.74,0.12725850354608353,-1.7939470678789953,-9.583144098458163,0.1886047418209202,-0.030797859355742863,-1.8948163911363347
7.75,0.14642417557022225,-1.828881065162158,-9.580649566163958,0.3034822575931754,0.15772441234418713,-1.7460215844429536
7.76,0.30216452242493375,-1.8059531453387898,-9.548978270820816,0.13354189117509202,0.2653584006151182,-1.8127547331921074
7.7700000000000005,0.2910150358387034,-1.7665076119020269,-9.65678798980349,-0.10066494211980723,0.10743518811191093,-1.7798110111905037
7.78,0.23205944966668865,-1.7789031603374743,-9.66707766214452,0.04792364227336762,-0.004061010111727631,-1.9380995983909708
7.79,0.14766256359191218,-1.7972894337867442,-9.597847216910782,-0.029575266090024588,0.08950401037465268,-1.8448206983771098
7.8,0.25304993087979566,-1.7945842775348282,-9.625167231481909,0.07032522254614315,0.0523445843438067,-1.7481489521116398
7.8100000000000005,0.1662876037456264,-1.7705373643486755,-9.530525248025501,0.15371762408383544,0.14396542200480847,-2.0940155432206056
7.82,0.23666935115084092,-1.8370714124257146,-9.609895561399453,0.00861876390305058,0.05794045796789701,-1.8840149557276789
7.83,0.17349680611196416,-1.7801914622662027,-9.669219500470884,0.12946105947724718,0.21612776390022237,-2.094276730475138
7.84,0.30594540242474066,-1.8607384763720696,-9.598631937213115,0.029238997472208178,0.25326398308647946,-1.773362981987154
7.8500000000000005,0.2603676716997521,-1.773235587979198,-9.659012519340891,0.22864342505181087,0.1560558183266155,-2.0703314752075626
7.86,0.15020338912802275,-1.7818448927581507,-9.536570435971138,0.12723463393618326,0.12269860434756602,-1.961388815212219
7.87,0.09407093155063276,-1.829918045705096,-9.575630315826505,0.2600612561007253,0.22608636818435565,-1.9340137624426323
7.88,0.23893673605724994,-1.7430329889300538,-9.61987848752738,0.0059822964852683375,0.08288998889828333,-1.6518012152535602
7.890000000000001,0.0629526287155189,-1.8431665088152303,-9.621229425196514,0.048024577469746345,0.22046341190314597,-1.9402949194606176
7.9,0.15491896149962991,-1.747742929815246,-9.598537568948206,0.055192088353747365,-0.0010812548061284177,-1.7652299111218799
7.91,0.18474965161950183,-1.763910299673101,-9.553356194716864,-0.07338607104995729,0.09751889163010019,-2.0113151852890025
7.92,0.19247724428898874,-1.7237958871935641,-9.607009955461468,-0.0835442103301926,-0.1221891293792968,-1.849025162583639
7.930000000000001,0.20274939754558627,-1.784536335670318,-9.612210156268052,0.4165926729188333,0.2006686286977812,-1.8463005834276496
7.94,0.1489427118229947,-1.8341728491113825,-9.496439104525134,0.12878052015440997,-0.026575998434659354,-1.9740377686789752
7.95,0.22613494185956623,-1.824227205628978,-9.554584578383249,-0.09304032652714248,0.1285087762439645,-1.8019455801294464
7.96,0.11512144254854398,-1.7622163747659785,-9.649526464241308,0.2895990337160448,0.06513933892123208,-1.5971058156408287
7.97,0.044646640760220235,-1.8221717758031104,-9.611131421761314,0.011909625660308093,-0.0038664061771803288,-1.88297529553613
7.98,0.16736329552012566,-1.762033478003129,-9.625475970707033,-0.11050978777341833,0.3422378701097207,-1.8391396621843397
7.99,0.18975780924693236,-1.7849705495980706,-9.669015493813774,0.011194135695147031,0.1981281305626136,-1.9334616404158314
8.0,0.23065730452076344,-1.7651567087407791,-9.558692159280612,0.1833312800062909,0.17799090936375045,-1.589731015804472
8.01,0.19886776302322623,-1.7866715119212144,-9.633318553670634,0.119987330525969,0.19698557725573648,-1.6778844530531993
8.02,0.20222959590986972,-1.7989638442829476,-9.680951958136335,0.17987569483897714,0.06632329796531919,-1.8588668490527318
8.03,0.16537440994083524,-1.7952802084644583,-9.627642984677834,0.13601095109426828,0.20029673453524804,-1.6534488599747041
8.040000000000001,0.229785246018276,-1.7886495684834987,-9.713209820266004,-0.05305332391100437,-0.019433503503230615,-1.6000484943743531
8.05,0.15851076618948728,-1.8267174664449966,-9.6227991959579,0.03915278356277227,0.026599680911203086,-1.7927993316436677
8.06,0.29342675189290035,-1.7647724028614113,-9.620916598864936,0.005071630536576027,0.10182539466791565,-1.5157929090139584
8.07,0.21649873032633488,-1.7008950766871767,-9.586235851240026,0.0930317854356462,0.11637264438377373,-1.5467035464810832
8.08,0.18500323866103824,-1.7417563609018922,-9.623142902043378,0.24177540559253707,0.12322968089631968,-1.733378957743363
8.09,0.2525593401403993,-1.6688562562174403,-9.604430880470655,0.16368190455805404,0.024452015527153106,-1.4734757180515976
8.1,0.24354804116708229,-1.6702502093688185,-9.727572701017214,-0.06628833879468563,0.23033763746241226,-1.4493410513637879
8.11,0.2141645783281781,-1.7220178809183373,-9.63851364942236,0.17372213367247252,0.11056350703341926,-1.4076318169142326
8.120000000000001,0.21559794210998517,-1.651753118792419,-9.637870626296037,-0.00010011425441540378,0.08105183354682004,-1.2980695789456071
8.13,0.1765845466210365,-1.7035443208013394,-9.621248041506137,0.12014446759377458,0.05284466555975212,-1.4636814502354962
8.14,0.13418538267093616,-1.7752492820094143,-9.64534554989463,0.24478616756090604,0.22477362453885064,-1.331470402458681
8.15,0.289720645430184,-1.6713283254235711,-9.551962381027598,0.05204261397413854,0.04176385173525903,-1.3630237839973
8.16,0.1299315781868996,-1.7126469178262946,-9.555850492962149,0.15201808295539276,0.28498779934670737,-1.3416663023217446
8.17,0.17423153911302777,-1.7079253421181315,-9.616777024718212,0.059856487900852455,0.1221055209606374,-1.2009022690515776
8.18,0.2569977540152748,-1.6688707762717314,-9.72175726574185,0.2560557973796651,0.04923231635838782,-1.3426442412404898
8.19,0.2539558600282631,-1.7101527135241403,-9.530649449633756,0.059427924593800745,0.039266245581499826,-1.0445175421955346
8.2,0.2428738229385528,-1.7218260796895137,-9.589788988037593,-0.045309476044446156,-0.2462557408575546,-1.22720212852362
8.21,0.2593363339814647,-1.6709493373335882,-9.556544066689895,0.08836175812743634,-0.038870948616000656,-1.1923139499325714
8.22,0.19278909398081706,-1.6219016484074598,-9.586050428103984,0.1636042096595144,-0.12432396277701835,-1.2064835811044832
8.23,0.1976678771933448,-1.7306300369100294,-9.627035479356376,0.14249196402774666,-0.007309753065744218,-1.0029287593659058
8.24,0.20785838666672993,-1.6945978354007747,-9.599360078226601,-0.00245227544909328,-0.003719868422735334,-0.9560055955975947
8.25,0.16728711999735651,-1.5322754579397466,-9.64722980419451,0.03647859009599218,-0.07449824596807636,-0.9617393626307161
8.26,0.20873259203251895,-1.6463716122044423,-9.634359687788102,0.2242261862711349,0.2919824430114457,-0.9461754604392806
8.27,0.1959075540536542,-1.604950481452827,-9.692082555992117,0.10986414373516994,-0.05394796353429998,-0.9423884144947384
8.28,0.1793957388974956,-1.598538835530676,-9.559651119223897,0.035325330248783246,0.1450292966466855,-0.782253438948564
8.290000000000001,0.2976783282087817,-1.6725502738235023,-9.576180226681627,0.1426830803830974,0.07468925300373251,-1.0265286548704111
8.3,0.22773589731338537,-1.62567171917029,-9.609677517617586,-0.016175490121047423,0.07965545654626757,-0.9007851904109624
8.31,0.2578161737358926,-1.6307185896298086,-9.574758246749248,-0.00749117526067733,0.27842099071468296,-0.8933925740502154
8.32,0.18898542630611326,-1.5925027297174315,-9.575312088710858,0.0360092989337297,0.07716832221718214,-0.8258282053387757
8.33,0.21012159355919532,-1.6241883435931226,-9.596965187181807,0.22327324439716603,0.028759282538532438,-0.7283080202334078
8.34,0.2926541824548886,-1.6329600886790345,-9.6598116308522,0.2287204528476792,0.2372217261160593,-0.9484439249246958
8.35,0.1893380376186114,-1.5470039009053338,-9.522993322082145,-0.030130471632588474,-0.023092345447621468,-0.9423905383270587
8.36,0.11310636587041434,-1.5312971692856039,-9.61838625118612,0.1247658233877316,-0.19832744632458202,-0.6793802002914174
8.370000000000001,0.16625377442708056,-1.5650934201790796,-9.56463869663948,0.0639982489494473,0.03955174885482585,-0.7171008304392368
8.38,0.21163381420770652,-1.449262378194261,-9.590069984028586,0.28358371378788516,-0.009930513776740008,-0.7053299636918734
8.39,0.2628573432468173,-1.5194351428495287,-9.654649333968104,0.1683860158001455,-0.06275772932388887,-0.8909758699463061
8.4,0.2416777230484917,-1.484309534607643,-9.610850053166573,-0.07509755348838854,0.1201556739780557,-0.581998835052174
8.41,0.18862373807546254,-1.4532497809770983,-9.597704437343914,0.13412842796000538,-0.041642789452283696,-0.6950424299554233
8.42,0.24077561754703938,-1.5186163725721964,-9.63734454017925,0.26886767307225024,0.060786676541674724,-0.6386303759543813
8.43,0.18961516414468874,-1.5142117543922347,-9.62034178483399,0.11743032075482533,-0.013763100602766448,-0.6380112452000707
8.44,0.149384271068907,-1.445023079089049,-9.612646636591636,-0.0813809858478487,0.0014043838380581458,-0.8010550191727528
8.45,0.1955726752823134,-1.4584062699691476,-9.580941898523076,0.3012070273745422,0.16256489081390868,-0.8189703758886437
8.46,0.20549819843923983,-1.4489345578548998,-9.635635330682694,0.09341810302375006,-0.04061583942976321,-0.6340532454251041
8.47,0.21219165923342578,-1.449258086200853,-9.624952599480912,0.3089957521786838,0.012391133836106641,-0.5497437964155684
8.48,0.21996322138518817,-1.4247082113929395,-9.626182812363842,0.08148808577438649,0.0724727441616898,-0.6385987048550532
8.49,0.14273166705749973,-1.3456567214125035,-9.597189425853363,0.09524740575441404,0.009612751625826685,-0.6433254265929729
8.5,0.22068372027628191,-1.4693810128952298,-9.641410394771183,0.13911788307704315,0.012644745746863875,-0.49967319810480026
8.51,0.22409270755496058,-1.3612968275503232,-9.586056319027483,0.3324590474834804,0.33683520004104917,-0.45667331917924414
8.52,0.14993036633097695,-1.4148972388361496,-9.65717232925969,0.14112631117980245,0.12851279880028543,-0.48970150156965164
8.53,0.2242915302697445,-1.3731143309474203,-9.637220829590015,0.17339326685574263,0.14640677652769055,-0.48818869707982704
8.540000000000001,0.23818463807162019,-1.2278833575073285,-9.461563007096427,0.06616419040200812,0.03850390597253135,-0.4191201519045592
8.55,0.21179269939115714,-1.27930724273042,-9.615550634060114,0.17253473077561332,0.18305827280481274,-0.5499252528907239
8.56,0.14748784422941827,-1.3804511748456576,-9.580411220499382,-0.07267054448636276,0.1533536243723264,-0.48965452614031346
8.57,0.18018870444101057,-1.2872041964361847,-9.518606321173536,0.221167162779187,0.24298035183711775,-0.4738304072438474
8.58,0.2688003463626364,-1.3180659603260696,-9.517608517357319,0.17384680718906365,0.1734873630895144,-0.49170648060364974
8.59,0.19090606689763145,-1.3223614409940672,-9.606815420604914,0.04815858789839708,0.18076338637162445,-0.26272474692438763
8.6,0.19704080149463912,-1.215293960691682,-9.602554720051916,0.2385230495406147,-0.03296957131247941,-0.4185863497915413
8.61,0.142331836888011,-1.2943033753490514,-9.524526014345208,0.036973656784086206,-0.08421501089615735,-0.3084262041134851
8.620000000000001,0.20200188089108767,-1.1673145057258776,-9.633944183498391,0.12792150482348952,0.05813092816117956,-0.4087227134363758
8.63,0.21430092508670784,-1.3345273695238562,-9.515298079350304,0.03550807729683898,-0.2187270493801031,-0.1982133672084265
8.64,0.16084036211878286,-1.1777021382160737,-9.585380827289214,0.09052095295539794,0.2597395173755349,-0.5375166402726061
8.65,0.1297987574850395,-1.1530395217332303,-9.640330033551985,0.13492626805294505,0.27887987090506283,-0.444562145069472
8.66,0.1818827949912554,-1.1872176490784445,-9.558216041889189,0.20401013125044087,-0.02879053195439399,-0.192585071930677
8.67,0.20018696441389353,-1.2166604337054516,-9.624567504758616,0.1812758178259088,0.18638248897235252,-0.42221390232276135
8.68,0.18961650498465876,-1.1286692572220134,-9.609662300886615,0.15030245648874013,0.23343547940886486,-0.2661065178104933
8.69,0.21977195418775552,-1.1781196235886533,-9.570387119777399,-0.040086246371659334,0.27415742009048827,-0.3296603678900083
8.700000000000001,0.25049585161287435,-1.1873189441557503,-9.525388180711726,0.15055733705830907,0.05186661036936682,-0.3393858562715586
8.71,0.24591176628122932,-1.0500280422462034,-9.539722894880795,0.128999951938763,0.09101433195465436,-0.3625716047026116
8.72,0.16104425151473173,-1.0382578197731356,-9.620901201972016,0.009108918556121934,-0.02468697089967868,-0.3778754217541914
8.73,0.268663968531267,-1.079682136846844,-9.665658192223379,-0.006970558040697045,0.03727195273921162,-0.3241687090612754
8.74,0.18253749062866761,-1.0643022555662873,-9.610562381562739,0.1136421490954088,0.129565661001516,-0.3682172954744367
8.75,0.23753660916497626,-0.9058310278339496,-9.625194850317868,-0.004031467439515296,0.11537429521537101,-0.23958150828691857
8.76,0.2860904131715485,-0.9950316399720924,-9.586125770164244,-0.020312637673225706,0.09318646334031497,-0.38009686943451826
8.77,0.1552581624957124,-0.9985024364096011,-9.566108487894843,0.09096652861998297,-0.02317596099922843,-0.3026277885587123
8.78,0.271903108502461,-1.0115270536548242,-9.58827867688507,0.021203085793288556,-0.03998032512525915,-0.2693395551565665
8.790000000000001,0.24753653336788867,-0.9716957576530383,-9.575510284531424,-0.15622418557729398,0.021287911861478243,-0.26371791347528517
8.8,0.18432404756442,-0.9731522019419356,-9.695755404900043,-0.02853751418086048,0.06901159453284353,-0.22999334353081943
8.81,0.18562027139242684,-0.9975756058505727,-9.478582231434656,0.08235469445865658,-0.10665435353642705,-0.1104132969730513
8.82,0.12834942845725522,-0.9193156916249368,-9.699284674804838,0.021192655028481527,0.10703189025868477,-0.4411500524563925
8.83,0.1874513936934188,-0.8942982576420024,-9.569245859483006,0.30711466050371117,-0.034766037105580405,-0.1290117806991
8.84,0.16577982030667918,-0.9274548002383389,-9.528160924745485,0.170068956887371,0.1800183374243956,-0.21094511883999736
8.85,0.22208970422686913,-0.8970019755438092,-9.537249685577079,0.2261626177180167,-0.03256286727752175,-0.28096459162047105
8.86,0.16886279174775495,-0.8102956433074626,-9.573270381918968,0.29097484955560127,0.014619229225735594,-0.1349655488697242
8.870000000000001,0.22584504228559754,-0.7950716191181322,-9.668880993482054,0.062486688113208386,-0.02441970581272382,-0.13142765101580747
8.88,0.1307089824717032,-0.8217206302936233,-9.65588275515235,0.33658245202349574,0.3209342557794498,-0.1942429711881785
8.89,0.1999859482199281,-0.7343608795449694,-9.589739536761094,0.11624029999448018,0.11548522664300327,-0.22373810136022174
8.9,0.24599845965842468,-0.820347711710852,-9.585710264490789,0.020276564906957922,0.3015534650651077,-0.1414385397638057
8.91,0.16133980560084982,-0.7891899430394247,-9.562857140085953,0.21985814551696103,0.13278750474965142,-0.32563995831597525
8.92,0.13369256919955813,-0.7558400552298343,-9.55669501010817,0.12443875648600237,0.05774305769175822,0.07542427716261285
8.93,0.1825742205000262,-0.679897351230641,-9.581945457980709,0.12255757234270037,0.1297978923939334,-0.2528747404441972
8.94,0.20439090431344942,-0.5900449986325207,-9.631081981914837,0.060337773715991846,0.004804729473039213,-0.11317583441800966
8.950000000000001,0.15821766096134077,-0.6446818172071638,-9.697540488609851,0.10946072853345767,0.08043357937567651,-0.13296144392635137
8.96,0.09908826605839818,-0.5581465998322352,-9.581511703009197,0.2770852015699262,-0.010333024619022663,-0.08759363028137998
8.97,0.17843531182527492,-0.67093261969264,-9.683104739859896,0.08249929311632681,0.04043453744152345,-0.0028827618022382456
8.98,0.1457576415328572,-0.7154340288469978,-9.57437489510746,-0.006701959551414033,0.15406640852906378,0.04616430612917791
8.99,0.13582648020489058,-0.6316034226455258,-9.56206138822231,0.03317102711045805,0.049718341389412224,-0.02266029890816293
9.0,0.2631021685742349,-0.6035369669659656,-9.604599003398064,0.18169833317754286,-0.2219414033287371,-0.008496156110483738
9.01,0.2766950443056211,-0.6378329973189307,-9.709677111570167,0.019885067815656562,0.1462698903264085,0.018230811615606662
9.02,0.21343472914432668,-0.6179333683181698,-9.709759043719655,0.11573919054943566,0.023039803618441226,-0.060534299099433087
9.03,0.17518414298488183,-0.6117640572106333,-9.542826520106523,0.06983170925167079,-0.0028353478562301027,-0.11760404762910084
9.040000000000001,0.14796268015866962,-0.5062380827048076,-9.627882769478763,0.05674263294413591,0.14707184187593614,0.06010749565593909
9.05,0.2597089495790279,-0.5300377242514704,-9.629346402031574,0.2181777926925251,0.08276705945146172,-0.07618634846171113
9.06,0.1884797824169962,-0.5335178508206473,-9.610454492652908,0.0553528806857265,0.137617134920091,-0.04250295514947319
9.07,0.19594672341492428,-0.4911428829154157,-9.613422280463809,0.015721409464878322,-0.02070687433082577,-0.05301692297885588
9.08,0.09588391901808575,-0.5422635010065096,-9.518489696630802,0.05991350751257375,0.17496040335154164,-0.09871545630664047
9.09,0.1429791592550324,-0.5341054234834806,-9.599087725581338,0.12098471878552128,0.03299314137825134,-0.07078418988639548
9.1,0.1668028429017844,-0.520927182802047,-9.691385913083897,0.06800358904183382,0.04201723100362055,0.03761292226653856
9.11,0.12104876452430392,-0.41218964233696925,-9.668223039132693,0.0017085794964633166,0.046020161973762456,-0.015268736720432358
9.120000000000001,0.1294440108632255,-0.34495592750563847,-9.57574085070094,0.3102231829014357,0.05757371675335307,0.06623607808101642
9.13,0.19229149373781923,-0.4215628631059178,-9.49554363520892,0.09167236854186417,0.12695057354393174,-0.1355938339322643
9.14,0.21720789080025465,-0.4160818142942431,-9.554878315416692,0.24441651446127155,0.11455014190302046,0.030700262795346378
9.15,0.1433376385714635,-0.39898072312233407,-9.585670365019075,0.05867977427971005,0.013407099972942788,0.00642652064135979
9.16,0.17000317271402193,-0.3050489575849959,-9.639763649997175,0.18062634633659302,0.07288268082526306,-0.04259465521841002
9.17,0.22276399334830327,-0.2760906141501304,-9.603187111905255,0.1328922330861628,0.040228043209528996,-0.19463335750376773
9.18,0.21944855438150138,-0.2774219362410556,-9.618674844921554,-0.039328890237161296,0.038931340199057154,0.046866810333782497
9.19,0.20980608822475247,-0.36298752729385625,-9.627649654700027,0.12220809369854581,0.015538826472869013,0.1103261984864273
9.200000000000001,0.24059714656412035,-0.24952232029148175,-9.57330839835263,0.31396752331356326,0.12444740292243207,0.0207409193515352
9.21,0.16931176807735973,-0.24689583081075445,-9.55151648641935,0.06926356993337807,0.09365814413284329,-0.003709988552161536
9.22,0.22399099823505064,-0.23618802755587975,-9.595435956637461,0.07042561954504774,-0.002626097571567801,-0.023410818969794633
9.23,0.15865858479209693,-0.11039381829690798,-9.575716869186522,0.051776220075133,0.0631454984785659,-0.08986786365529376
9.24,0.19712528244548772,-0.19178675720803118,-9.655409114430494,0.03746791792131024,0.08786465088420463,0.018008052017532278
9.25,0.10060179563758226,-0.16347596895498984,-9.543522309979782,0.17480213863678856,0.18723935317187623,0.10727753541307551
9.26,0.16202181253343081,-0.09998398857409041,-9.575152295040642,0.19218343741465563,0.02683913272079856,0.14423840141125982
9.27,0.12447961929750823,-0.1646008281914521,-9.626837011735796,0.022363342600939737,0.12701703556969138,-0.07019885915533716
9.28,0.20015600754039914,-0.025202146417208166,-9.62446553198591,0.17537164064312127,0.1748705455770951,0.0488853750817613
9.290000000000001,0.26436536233520636,-0.037650395671186276,-9.60413149805228,0.07177484657090792,0.1313787920855981,0.1770574113858176
9.3,0.19478615073138877,-0.07762745301696528,-9.625438775014953,0.13909945234699314,0.2778982314689108,-0.04787111722487625
9.31,0.2794144534893104,0.010554614003139895,-9.61443542035782,-0.011634243177772577,0.08425330042926116,-0.20624265522310817
9.32,0.20251653316848947,-0.09469948674497253,-9.58720445464086,0.2424482643446889,0.04684196538080785,-0.017023910171913514
9.33,0.1719771973603919,0.048903299170803716,-9.584032323506252,-0.01153247661550634,0.25532651256491945,0.13846499640149498
9.34,0.19632878838598342,-0.008695507512122724,-9.611579556302459,0.2080722483062728,0.21065565242288478,0.23273665769616955
9.35,0.2051450137723324,0.04585669201208256,-9.660286468733181,0.09079623146456274,0.15372175176375913,0.19546965567743235
9.36,0.1893193824942117,0.10527742944488316,-9.578174013468963,0.09933492121742106,0.2619735568745304,0.1717578662476047
9.370000000000001,0.11714625378666156,0.05809731530447598,-9.611149146016668,0.09711739921369354,-0.0023381054505832166,0.17314121711777225
9.38,0.24956436203149673,0.1105335861781097,-9.660597664650316,0.030702365560132963,-0.039888518773513876,0.12057906610787801
9.39,0.1576597887320849,0.04600036886213704,-9.592814439418113,0.23639830328556485,0.1124002596395528,-0.00455132082572253
9.4,0.17381971519633296,0.31886450586104303,-9.565585118143739,0.16453340526903,0.19065766827344216,0.12204084805767929
9.41,0.20961306061823845,0.10353252047699539,-9.616792061837424,0.07907225231882249,0.1131865259179496,0.10645223831580933
9.42,0.06452771055260337,0.15570011994433652,-9.573301408037102,-0.07786102100725042,0.11899353678325271,0.05184910062012054
9.43,0.1899344036363198,0.2712870942722761,-9.594235420993144,0.08590073971651462,0.1363510765289915,0.13212819853281796
9.44,0.11699473549277865,0.18934857665197724,-9.69226327473372,0.140709433858262,0.22947344897310984,0.1807702740179319
9.450000000000001,0.13341582928854734,0.22656899445185166,-9.540786537774691,0.18367668004529542,0.05291696386669441,0.16699285359281282
9.46,0.18791740852999547,0.289409542726299,-9.54113555505109,0.11063283763126672,0.21632358891458137,0.052756370107271244
9.47,0.19689438562222542,0.2585688508995863,-9.644890346623212,0.16923840024054587,0.19358086465989094,0.14608455551161784
9.48,0.20632285685881854,0.31103550237228705,-9.631933904741418,-0.12545627993231703,0.17769369099599502,0.031557945638800836
9.49,0.20268092019686834,0.2967493239287439,-9.57759622003039,0.11778301277177541,-0.11769607311106886,0.12251773652877938
9.5,0.1815921473555022,0.3955699859668963,-9.605248169323803,-0.085660081877872,0.2644642483405907,-0.1540850567309057
9.51,0.16799837765766534,0.4268273566689019,-9.543033597228627,0.08185898844537988,0.11285650196198471,0.07565267252923336
9.52,0.2271913955092791,0.39350399328960406,-9.677830942953824,0.33902659645342126,0.18803929270206618,0.21033763929471122
9.53,0.18546678618867138,0.42478200739201843,-9.617373893756001,0.07628702236437811,0.0709896336639354,0.3450881529671068
9.540000000000001,0.1825955646567458,0.4533005378884545,-9.54266233504448,0.15711794438482718,0.168612615220315,0.2873874621255905
9.55,0.29001360135691556,0.4796697301393537,-9.565343090287634,0.15543897870054785,0.13882090422891863,0.14131332426916723
9.56,0.2395985751712043,0.48768678631357076,-9.52137506461368,0.22790694055335398,0.11068475704308917,0.22449860452829762
9.57,0.22155496817079848,0.5563835904164321,-9.581284528973187,-0.038691555338290495,0.2702584904111782,0.22139359847999268
9.58,0.21025826160639519,0.5448058208396085,-9.639575768535796,0.1791893014059329,0.03855160840801709,0.17961344970340964
9.59,0.34127060376904106,0.5158146792144619,-9.665756389432621,0.12067676393701667,0.1367024646760678,0.10161551574344929
